Syntax version=4
Wed May 02 10:41:51 2018
Starting process (2533211 clocks per sec)

LogRawData=false
VarHeader=1
D:		imu_acc_x	imu_acc_y	imu_acc_z	imu_gyro_x	imu_gyro_y	imu_gyro_z	imu_mag_x	imu_mag_y	imu_mag_z
D:	time(ms)	(0x20000236,3)	(0x20000238,3)	(0x2000023a,3)	(0x2000022a,3)	(0x2000022c,3)	(0x2000022e,3)	(0x20000230,3)	(0x20000232,3)	(0x20000234,3)
D:	0.06	-1791	170	16035	41	192	-27	1539	621	5554
D:	1.06	-1791	170	16035	41	192	-27	1539	621	5554
D:	2.00	-1791	170	16035	60	157	-60	1539	621	5554
D:	2.90	-1791	170	16035	60	157	-60	1539	621	5554
D:	3.79	-1788	82	15766	60	157	-60	1539	621	5554
D:	4.69	-1788	82	15766	60	157	-60	1539	621	5554
D:	5.59	-1788	82	15766	60	52	-73	1539	621	5554
D:	6.74	-1788	82	15766	33	52	-73	1539	621	5554
D:	7.73	-1734	120	15862	33	52	-73	1539	621	5554
D:	8.63	-1734	120	15862	33	52	-73	1539	621	5554
D:	9.58	-1734	120	15862	33	71	-79	1539	621	5554
D:	10.48	-1734	120	15862	35	71	-79	1539	621	5554
D:	11.38	-1711	151	15462	35	71	-79	1539	621	5554
D:	12.27	-1711	151	15462	35	71	-79	1539	621	5554
D:	13.15	-1711	151	15462	35	71	-79	1539	621	5554
D:	14.13	-1711	151	15462	-59	43	-132	1539	621	5554
D:	15.06	-1711	151	15462	-59	43	-132	1539	621	5554
D:	16.10	-1789	99	15713	-59	43	-132	1539	621	5554
D:	17.16	-1789	99	15713	-59	43	-132	1539	621	5554
D:	18.12	-1789	99	15713	-16	2	1	1539	621	5554
D:	19.06	-1789	99	15713	-16	2	1	1556	598	5440
D:	20.00	-1841	117	15894	-16	2	1	1556	598	5440
D:	20.88	-1841	117	15894	-16	2	1	1556	598	5440
D:	21.76	-1841	117	15894	-16	2	-80	1556	598	5440
D:	22.64	-1841	117	15894	-32	2	-80	1556	598	5440
D:	23.58	-1623	136	15474	-32	2	-80	1556	598	5440
D:	24.48	-1623	136	15474	-32	2	-80	1556	598	5440
D:	25.38	-1623	136	15474	-32	2	-80	1556	598	5440
D:	26.28	-1623	136	15474	-30	-70	-70	1556	598	5440
D:	27.29	-1623	80	15689	-30	-70	-70	1556	598	5440
D:	28.27	-1815	80	15689	-30	-70	-70	1556	598	5440
D:	29.17	-1815	80	15689	-30	-70	-70	1556	598	5440
D:	30.13	-1815	80	15689	-97	-105	-104	1556	598	5440
D:	31.02	-1815	80	15689	-97	-105	-104	1556	598	5440
D:	31.90	-1613	56	15848	-97	-105	-104	1556	598	5440
D:	32.78	-1613	56	15848	-97	-105	-104	1556	598	5440
D:	33.67	-1613	56	15848	-97	-120	-55	1556	598	5440
D:	34.58	-1613	56	15848	-120	-120	-55	1556	598	5440
D:	35.61	-1685	120	15914	-120	-120	-55	1556	598	5440
D:	36.61	-1685	120	15914	-120	-120	-55	1556	598	5440
D:	37.58	-1685	120	15914	-120	-187	-22	1556	598	5440
D:	38.53	-1685	120	15914	-125	-187	-22	1543	613	5570
D:	39.55	-1726	202	15968	-125	-187	-22	1543	613	5570
D:	40.47	-1726	202	15968	-125	-187	-22	1543	613	5570
D:	41.35	-1726	202	15968	-125	-187	-22	1543	613	5570
D:	42.20	-1726	202	15968	26	-148	-127	1543	613	5570
D:	43.11	-1726	202	15968	26	-148	-127	1543	613	5570
D:	44.00	-1755	196	16002	26	-148	-127	1543	613	5570
D:	44.89	-1755	196	16002	26	-148	-127	1543	613	5570
D:	45.77	-1755	196	16002	-230	-176	-100	1543	613	5570
D:	46.67	-1755	196	16002	-142	-176	-100	1543	613	5570
D:	47.57	-1778	47	15853	-142	-176	-100	1543	613	5570
D:	48.47	-1778	47	15853	-142	-176	-100	1543	613	5570
D:	49.34	-1778	47	15853	-142	-176	-100	1543	613	5570
D:	50.22	-1778	47	15853	-105	-262	4	1543	613	5570
D:	51.13	-1778	47	15853	-105	-262	4	1543	613	5570
D:	52.06	-1763	129	15769	-105	-262	4	1543	613	5570
D:	53.00	-1763	129	15769	-105	-262	4	1543	613	5570
D:	54.03	-1763	129	15769	-100	-214	-239	1543	613	5570
D:	55.08	-1763	129	15769	-100	-214	-239	1543	613	5570
D:	56.01	-1933	110	15836	-100	-214	-239	1543	613	5570
D:	56.89	-1933	110	15836	-100	-214	-239	1543	613	5570
D:	57.84	-1933	110	15836	-75	-335	10	1543	613	5570
D:	58.88	-1933	110	15836	-75	-335	10	1543	613	5570
D:	59.80	-1731	112	16058	-75	-335	10	1543	613	5570
D:	60.69	-1731	112	16058	-75	-335	10	1543	613	5570
D:	61.63	-1731	112	16058	-75	-290	-18	1543	613	5570
D:	62.57	-1731	112	16058	-210	-290	-18	1557	608	5425
D:	63.46	-1693	46	15721	-210	-290	-18	1557	608	5425
D:	64.35	-1693	46	15721	-210	-290	-18	1557	608	5425
D:	65.23	-1693	46	15721	-210	-290	-18	1557	608	5425
D:	66.13	-1693	46	15721	-134	-509	-50	1557	608	5425
D:	67.06	-1693	46	15721	-134	-509	-50	1557	608	5425
D:	68.02	-1662	86	15686	-134	-509	-50	1557	608	5425
D:	69.01	-1662	86	15686	-134	-509	-50	1557	608	5425
D:	70.00	-1662	86	15686	-97	-215	-82	1557	608	5425
D:	70.91	-1662	86	15686	-97	-215	-82	1557	608	5425
D:	71.80	-1733	134	15861	-97	-215	-82	1557	608	5425
D:	72.70	-1733	134	15861	-97	-215	-82	1557	608	5425
D:	73.60	-1733	134	15861	-97	-123	-50	1557	608	5425
D:	74.51	-1733	134	15861	-81	-123	-50	1557	608	5425
D:	75.57	-1735	76	15755	-81	-123	-50	1557	608	5425
D:	76.46	-1735	76	15755	-81	-123	-50	1557	608	5425
D:	77.35	-1735	76	15755	-81	-123	-50	1557	608	5425
D:	78.25	-1735	76	15755	-62	-70	-52	1557	608	5425
D:	79.14	-1735	76	15755	-62	-70	-52	1557	608	5425
D:	80.06	-1744	30	15962	-62	-70	-52	1557	608	5425
D:	81.00	-1744	30	15962	-62	-70	-52	1557	608	5425
D:	81.90	-1744	30	15962	-35	-195	-21	1557	608	5425
D:	82.83	-1744	30	15962	-35	-195	-21	1539	637	5610
D:	83.73	-1617	85	15852	-35	-195	-21	1539	637	5610
D:	84.62	-1617	85	15852	-35	-195	-21	1539	637	5610
D:	85.58	-1617	85	15852	-35	-64	3	1539	637	5610
D:	86.46	-1617	85	15852	-112	-64	3	1539	637	5610
D:	87.41	-1585	68	15649	-112	-64	3	1539	637	5610
D:	88.48	-1585	68	15649	-112	-64	3	1539	637	5610
D:	89.47	-1585	68	15649	-112	-10	11	1539	637	5610
D:	90.34	-1585	68	15649	-79	-10	11	1539	637	5610
D:	91.23	-1585	68	15649	-79	-10	11	1539	637	5610
D:	92.11	-1681	107	16110	-79	-10	11	1539	637	5610
D:	93.00	-1681	107	16110	-79	-10	11	1539	637	5610
D:	93.89	-1681	107	16110	-39	28	-83	1539	637	5610
D:	94.76	-1681	107	16110	-39	28	-83	1539	637	5610
D:	95.63	-1649	28	15464	-39	28	-83	1539	637	5610
D:	96.56	-1649	28	15464	-39	28	-83	1539	637	5610
D:	97.46	-1649	28	15464	-39	-8	-61	1539	637	5610
D:	98.34	-1649	28	15464	-28	-8	-61	1539	637	5610
D:	99.21	-1649	28	15464	-28	-8	-61	1539	637	5610
D:	100.11	-1606	47	15752	-28	-8	-61	1539	637	5610
D:	101.00	-1606	47	15752	-28	-8	-61	1539	637	5610
D:	101.88	-1606	47	15752	-114	-60	3	1539	637	5610
D:	102.76	-1606	47	15752	-114	-60	3	1528	596	5495
D:	103.62	-1726	139	15826	-114	-60	3	1528	596	5495
D:	104.56	-1726	139	15826	-114	-60	3	1528	596	5495
D:	105.47	-1726	139	15826	-114	-3	-66	1528	596	5495
D:	106.49	-1726	139	15826	-79	-3	-66	1528	596	5495
D:	107.37	-1480	91	15483	-79	-3	-66	1528	596	5495
D:	108.28	-1480	91	15483	-79	-3	-66	1528	596	5495
D:	109.17	-1480	91	15483	-79	-3	-66	1528	596	5495
D:	110.12	-1480	91	15483	65	19	-61	1528	596	5495
D:	111.00	-1480	91	15483	65	19	-61	1528	596	5495
D:	111.92	-1724	128	15876	65	19	-61	1528	596	5495
D:	112.84	-1724	128	15876	65	19	-61	1528	596	5495
D:	113.73	-1724	128	15876	65	87	-65	1528	596	5495
D:	114.62	-1724	128	15876	34	87	-65	1528	596	5495
D:	115.56	-1667	147	15630	34	87	-65	1528	596	5495
D:	116.46	-1667	147	15630	34	87	-65	1528	596	5495
D:	117.34	-1667	147	15630	34	87	-65	1528	596	5495
D:	118.24	-1667	147	15630	-36	85	-31	1528	596	5495
D:	119.15	-1667	147	15630	-36	85	-31	1528	596	5495
D:	120.06	-1658	92	15647	-36	85	-31	1528	596	5495
D:	121.00	-1658	92	15647	-36	85	-31	1528	596	5495
D:	121.90	-1658	92	15647	42	-34	-51	1528	596	5495
D:	122.79	-1658	92	15647	42	-34	-51	1529	634	5533
D:	123.75	-1717	144	15995	42	-34	-51	1529	634	5533
D:	124.62	-1717	144	15995	42	-34	-51	1529	634	5533
D:	125.57	-1717	144	15995	42	92	-11	1529	634	5533
D:	126.46	-1717	144	15995	-86	92	-11	1529	634	5533
D:	127.37	-1813	92	15741	-86	92	-11	1529	634	5533
D:	128.26	-1813	92	15741	-86	92	-11	1529	634	5533
D:	129.15	-1813	92	15741	-86	92	-11	1529	634	5533
D:	130.06	-1813	92	15741	59	117	9	1529	634	5533
D:	131.00	-1813	92	15741	59	117	9	1529	634	5533
D:	131.89	-1788	67	15705	59	117	9	1529	634	5533
D:	132.89	-1788	67	15705	59	117	9	1529	634	5533
D:	133.93	-1788	67	15705	-8	41	49	1529	634	5533
D:	134.85	-1788	67	15705	-8	41	49	1529	634	5533
D:	135.76	-1578	31	15804	-8	41	49	1529	634	5533
D:	136.63	-1578	31	15804	-8	41	49	1529	634	5533
D:	137.56	-1578	31	15804	-8	110	79	1529	634	5533
D:	138.46	-1578	31	15804	105	110	79	1529	634	5533
D:	139.35	-1578	102	15548	105	110	79	1529	634	5533
D:	140.25	-1672	102	15548	105	110	79	1529	634	5533
D:	141.15	-1672	102	15548	105	110	79	1529	634	5533
D:	142.12	-1672	102	15548	144	212	42	1529	634	5533
D:	143.02	-1672	102	15548	144	212	42	1543	622	5555
D:	143.92	-1792	132	16108	144	212	42	1543	622	5555
D:	144.82	-1792	132	16108	144	212	42	1543	622	5555
D:	145.71	-1792	132	16108	144	143	-92	1543	622	5555
D:	146.56	-1792	132	16108	29	143	-92	1543	622	5555
D:	147.46	-1602	214	15816	29	143	-92	1543	622	5555
D:	148.36	-1602	214	15816	29	143	-92	1543	622	5555
D:	149.26	-1602	214	15816	29	143	-92	1543	622	5555
D:	150.21	-1602	214	15816	32	75	-69	1543	622	5555
D:	151.12	-1602	214	15816	32	75	-69	1543	622	5555
D:	152.19	-1725	29	15782	32	75	-69	1543	622	5555
D:	153.21	-1725	29	15782	32	75	-69	1543	622	5555
D:	154.12	-1725	29	15782	36	152	-104	1543	622	5555
D:	155.02	-1725	29	15782	36	152	-104	1543	622	5555
D:	155.91	-1780	188	15876	36	152	-104	1543	622	5555
D:	156.86	-1780	188	15876	36	152	-104	1543	622	5555
D:	157.84	-1780	188	15876	133	138	-61	1543	622	5555
D:	158.88	-1780	188	15876	133	138	-61	1543	622	5555
D:	159.77	-1647	76	15594	133	138	-61	1543	622	5555
D:	160.66	-1647	76	15594	133	138	-61	1543	622	5555
D:	161.59	-1647	76	15594	133	104	-77	1543	622	5555
D:	162.46	-1647	76	15594	64	104	-77	1530	630	5462
D:	163.36	-1647	179	15856	64	104	-77	1530	630	5462
D:	164.25	-1754	179	15856	64	104	-77	1530	630	5462
D:	165.12	-1754	179	15856	64	104	-77	1530	630	5462
D:	166.01	-1754	179	15856	-5	157	-88	1530	630	5462
D:	166.91	-1754	179	15856	-5	157	-88	1530	630	5462
D:	167.78	-1743	61	15928	-5	157	-88	1530	630	5462
D:	168.66	-1743	61	15928	-5	157	-88	1530	630	5462
D:	169.53	-1743	61	15928	-5	118	-30	1530	630	5462
D:	170.46	-1743	61	15928	193	118	-30	1530	630	5462
D:	171.35	-1743	98	15686	193	118	-30	1530	630	5462
D:	172.24	-1623	98	15686	193	118	-30	1530	630	5462
D:	173.12	-1623	98	15686	193	118	-30	1530	630	5462
D:	174.00	-1623	98	15686	97	165	-18	1530	630	5462
D:	174.91	-1623	98	15686	97	165	-18	1530	630	5462
D:	175.93	-1828	128	15914	97	165	-18	1530	630	5462
D:	177.02	-1828	128	15914	97	165	-18	1530	630	5462
D:	177.93	-1828	128	15914	46	96	-97	1530	630	5462
D:	178.84	-1828	128	15914	46	96	-97	1530	630	5462
D:	179.71	-1738	81	15605	46	96	-97	1530	630	5462
D:	180.59	-1738	81	15605	46	96	-97	1530	630	5462
D:	181.49	-1738	81	15605	46	172	-58	1530	630	5462
D:	182.41	-1738	81	15605	133	172	-58	1524	609	5523
D:	183.30	-1738	81	15605	133	172	-58	1524	609	5523
D:	184.17	-1705	125	15792	133	172	-58	1524	609	5523
D:	185.12	-1705	125	15792	133	172	-58	1524	609	5523
D:	186.00	-1705	125	15792	54	160	12	1524	609	5523
D:	186.90	-1705	125	15792	54	160	12	1524	609	5523
D:	187.80	-1774	156	15791	54	160	12	1524	609	5523
D:	188.67	-1774	156	15791	54	160	12	1524	609	5523
D:	189.56	-1774	156	15791	54	73	-51	1524	609	5523
D:	190.46	-1774	156	15791	126	73	-51	1524	609	5523
D:	191.34	-1774	108	15545	126	73	-51	1524	609	5523
D:	192.22	-1656	108	15545	126	73	-51	1524	609	5523
D:	193.12	-1656	108	15545	126	73	-51	1524	609	5523
D:	194.06	-1656	108	15545	32	131	-46	1524	609	5523
D:	195.00	-1656	108	15545	32	131	-46	1524	609	5523
D:	195.90	-1787	35	15611	32	131	-46	1524	609	5523
D:	196.79	-1787	35	15611	32	131	-46	1524	609	5523
D:	197.69	-1787	35	15611	32	225	-44	1524	609	5523
D:	198.56	-1787	35	15611	7	225	-44	1524	609	5523
D:	199.46	-1672	138	15661	7	225	-44	1524	609	5523
D:	200.32	-1672	138	15661	7	225	-44	1524	609	5523
D:	201.20	-1672	138	15661	7	225	-44	1524	609	5523
D:	202.22	-1672	138	15661	95	206	-20	1524	609	5523
D:	203.24	-1672	138	15661	95	206	-20	1524	636	5648
D:	204.13	-1620	114	15794	95	206	-20	1524	636	5648
D:	205.06	-1620	114	15794	95	206	-20	1524	636	5648
D:	206.00	-1620	114	15794	63	143	-4	1524	636	5648
D:	207.02	-1620	114	15794	63	143	-4	1543	636	5648
D:	208.01	-1811	150	15870	63	143	-4	1543	636	5648
D:	208.91	-1811	150	15870	63	143	-4	1543	636	5648
D:	209.80	-1811	150	15870	63	118	-66	1543	636	5648
D:	210.70	-1811	150	15870	133	118	-66	1543	636	5648
D:	211.58	-1687	50	15762	133	118	-66	1543	636	5648
D:	212.46	-1687	50	15762	133	118	-66	1543	636	5648
D:	213.32	-1687	50	15762	133	118	-66	1543	636	5648
D:	214.22	-1687	50	15762	63	83	-11	1543	636	5648
D:	215.12	-1687	50	15762	63	83	-11	1543	636	5648
D:	216.01	-1864	124	15810	63	83	-11	1543	636	5648
D:	216.90	-1864	124	15810	63	83	-11	1543	636	5648
D:	217.84	-1864	124	15810	63	76	-33	1543	636	5648
D:	218.73	-1864	124	15810	89	76	-33	1543	636	5648
D:	219.60	-1705	144	15910	89	76	-33	1543	636	5648
D:	220.48	-1705	144	15910	89	76	-33	1543	636	5648
D:	221.35	-1705	144	15910	89	76	-33	1543	636	5648
D:	222.25	-1705	144	15910	6	143	-53	1543	636	5648
D:	223.15	-1705	144	15910	6	143	-53	1543	636	5648
D:	224.10	-1553	-1	15784	6	143	-53	1543	636	5648
D:	225.19	-1553	-1	15784	6	143	-53	1543	636	5648
D:	226.19	-1553	-1	15784	43	74	13	1543	636	5648
D:	227.12	-1553	-1	15784	43	74	13	1537	597	5591
D:	228.02	-1734	146	16028	43	74	13	1537	597	5591
D:	228.88	-1734	146	16028	43	74	13	1537	597	5591
D:	229.78	-1734	146	16028	-213	82	-104	1537	597	5591
D:	230.66	-1734	146	16028	-7	82	-104	1537	597	5591
D:	231.57	-1737	67	15728	-7	82	-104	1537	597	5591
D:	232.44	-1737	67	15728	-7	82	-104	1537	597	5591
D:	233.30	-1737	67	15728	-7	82	-104	1537	597	5591
D:	234.19	-1737	67	15728	73	128	16	1537	597	5591
D:	235.28	-1669	58	15572	73	128	16	1537	597	5591
D:	236.27	-1669	58	15572	73	128	16	1537	597	5591
D:	237.15	-1669	58	15572	73	128	16	1537	597	5591
D:	238.06	-1669	58	15572	45	14	-65	1537	597	5591
D:	239.00	-1669	58	15572	45	14	-65	1537	597	5591
D:	239.90	-1703	44	15770	45	14	-65	1537	597	5591
D:	240.77	-1703	44	15770	45	14	-65	1537	597	5591
D:	241.66	-1703	44	15770	45	97	-139	1537	597	5591
D:	242.58	-1703	44	15770	-47	97	-139	1537	597	5591
D:	243.47	-1573	84	15862	-47	97	-139	1537	597	5591
D:	244.35	-1573	84	15862	-47	97	-139	1537	597	5591
D:	245.25	-1573	84	15862	-47	97	-139	1537	597	5591
D:	246.15	-1573	84	15862	103	132	-123	1537	597	5591
D:	247.12	-1573	84	15862	103	132	-123	1553	653	5704
D:	248.00	-1731	101	15705	103	132	-123	1553	653	5704
D:	248.89	-1731	101	15705	103	132	-123	1553	653	5704
D:	249.83	-1731	101	15705	103	104	-117	1553	653	5704
D:	250.73	-1731	101	15705	39	104	-117	1553	653	5704
D:	251.62	-1674	202	15748	39	104	-117	1553	653	5704
D:	252.57	-1674	202	15748	39	104	-117	1553	653	5704
D:	253.51	-1674	202	15748	39	11	-18	1553	653	5704
D:	254.48	-1674	202	15748	85	11	-18	1553	653	5704
D:	255.37	-1690	98	15755	85	11	-18	1553	653	5704
D:	256.28	-1690	98	15755	85	11	-18	1553	653	5704
D:	257.25	-1690	98	15755	85	11	-18	1553	653	5704
D:	258.23	-1690	98	15755	46	98	192	1553	653	5704
D:	259.12	-1690	98	15755	46	98	192	1553	653	5704
D:	260.02	-1803	130	15972	46	98	192	1553	653	5704
D:	260.93	-1803	130	15972	46	98	192	1553	653	5704
D:	261.86	-1803	130	15972	45	46	-49	1553	653	5704
D:	262.75	-1803	130	15972	45	46	-49	1553	653	5704
D:	263.65	-1533	94	15651	45	46	-49	1553	653	5704
D:	264.58	-1533	94	15651	45	46	-49	1553	653	5704
D:	265.48	-1533	94	15651	45	66	-86	1553	653	5704
D:	266.39	-1533	94	15651	93	66	-86	1553	653	5473
D:	267.26	-1533	94	15651	93	66	-86	1540	610	5473
D:	268.18	-1829	76	15630	93	66	-86	1540	610	5473
D:	269.11	-1829	76	15630	93	66	-86	1540	610	5473
D:	270.01	-1829	76	15630	-58	89	-13	1540	610	5473
D:	270.91	-1829	76	15630	-58	89	-13	1540	610	5473
D:	271.93	-1850	134	15974	-58	89	-13	1540	610	5473
D:	272.93	-1850	134	15974	-58	89	-13	1540	610	5473
D:	273.85	-1850	134	15974	94	57	-52	1540	610	5473
D:	274.74	-1850	134	15974	94	57	-52	1540	610	5473
D:	275.64	-1659	132	15552	94	57	-52	1540	610	5473
D:	276.58	-1659	132	15552	94	57	-52	1540	610	5473
D:	277.47	-1659	132	15552	94	113	-75	1540	610	5473
D:	278.35	-1659	132	15552	237	113	-75	1540	610	5473
D:	279.25	-1659	132	15552	237	113	-75	1540	610	5473
D:	280.11	-1788	106	15859	237	113	-75	1540	610	5473
D:	281.00	-1788	106	15859	237	113	-75	1540	610	5473
D:	281.89	-1788	106	15859	56	87	21	1540	610	5473
D:	282.77	-1788	106	15859	56	87	21	1540	610	5473
D:	283.67	-1670	137	15707	56	87	21	1540	610	5473
D:	284.57	-1670	137	15707	56	87	21	1540	610	5473
D:	285.66	-1670	137	15707	56	-7	9	1540	610	5473
D:	286.63	-1670	137	15707	80	-7	9	1544	665	5480
D:	287.60	-1632	31	15604	80	-7	9	1544	665	5480
D:	288.57	-1632	31	15604	80	-7	9	1544	665	5480
D:	289.57	-1632	31	15604	80	46	4	1544	665	5480
D:	290.55	-1632	31	15604	1	46	4	1544	665	5480
D:	291.47	-1704	31	15806	1	46	4	1544	665	5480
D:	292.38	-1704	31	15806	1	46	4	1544	665	5480
D:	293.25	-1704	31	15806	1	46	4	1544	665	5480
D:	294.15	-1704	31	15806	-39	-86	9	1544	665	5480
D:	295.05	-1704	31	15806	-39	-86	9	1544	665	5480
D:	296.00	-1740	93	15320	-39	-86	9	1544	665	5480
D:	297.05	-1740	93	15320	-39	-86	9	1544	665	5480
D:	298.00	-1740	93	15320	-81	-53	-12	1544	665	5480
D:	298.90	-1740	93	15320	-81	-53	-12	1544	665	5480
D:	299.83	-1769	117	15682	-81	-53	-12	1544	665	5480
D:	300.81	-1769	117	15682	-81	-53	-12	1544	665	5480
D:	301.70	-1769	117	15682	-81	2	-20	1544	665	5480
D:	302.59	-1769	117	15682	-130	2	-20	1544	665	5480
D:	303.50	-1592	92	15806	-130	2	-20	1544	665	5480
D:	304.43	-1592	92	15806	-130	2	-20	1544	665	5480
D:	305.35	-1592	92	15806	-130	2	-20	1544	665	5480
D:	306.24	-1592	92	15806	-78	39	-95	1544	665	5480
D:	307.12	-1592	92	15806	-78	39	-95	1537	613	5464
D:	308.20	-1643	24	15649	-78	39	-95	1537	613	5464
D:	309.13	-1643	24	15649	-78	39	-95	1537	613	5464
D:	310.06	-1643	24	15649	42	-27	-54	1537	613	5464
D:	310.94	-1643	24	15649	42	-27	-54	1537	613	5464
D:	311.83	-1783	92	15938	42	-27	-54	1537	613	5464
D:	312.71	-1783	92	15938	42	-27	-54	1537	613	5464
D:	313.58	-1783	92	15938	42	1	-45	1537	613	5464
D:	314.48	-1783	92	15938	-37	1	-45	1537	613	5464
D:	315.38	-1656	155	15948	-37	1	-45	1537	613	5464
D:	316.26	-1656	155	15948	-37	1	-45	1537	613	5464
D:	317.14	-1656	155	15948	-37	1	-45	1537	613	5464
D:	318.00	-1656	155	15948	50	88	-21	1537	613	5464
D:	318.89	-1656	155	15948	50	88	-21	1537	613	5464
D:	319.83	-1713	148	15767	50	88	-21	1537	613	5464
D:	320.71	-1713	148	15767	50	88	-21	1537	613	5464
D:	321.61	-1713	148	15767	50	3	57	1537	613	5464
D:	322.57	-1713	148	15767	-42	3	57	1537	613	5464
D:	323.47	-1549	140	15828	-42	3	57	1537	613	5464
D:	324.34	-1549	140	15828	-42	3	57	1537	613	5464
D:	325.21	-1549	140	15828	-42	3	57	1537	613	5464
D:	326.11	-1549	140	15828	15	-18	-30	1537	613	5464
D:	327.00	-1549	140	15828	15	-18	-30	1537	649	5425
D:	327.90	-1745	124	15766	15	-18	-30	1537	649	5425
D:	328.80	-1745	124	15766	15	-18	-30	1537	649	5425
D:	329.67	-1745	124	15766	15	-40	20	1537	649	5425
D:	330.56	-1745	124	15766	-41	-40	20	1537	649	5425
D:	331.54	-1677	103	15816	-41	-40	20	1537	649	5425
D:	332.61	-1677	103	15816	-41	-40	20	1537	649	5425
D:	333.63	-1677	103	15816	-41	81	6	1537	649	5425
D:	334.57	-1677	103	15816	4	81	6	1537	649	5425
D:	335.44	-1629	84	15632	4	81	6	1537	649	5425
D:	336.50	-1629	84	15632	4	81	6	1537	649	5425
D:	337.54	-1629	84	15632	4	84	-65	1537	649	5425
D:	338.46	-1629	84	15632	-5	84	-65	1537	649	5425
D:	339.34	-1629	99	15640	-5	84	-65	1537	649	5425
D:	340.22	-1677	99	15640	-5	84	-65	1537	649	5425
D:	341.22	-1677	99	15640	-5	84	-65	1537	649	5425
D:	342.17	-1677	99	15640	70	143	-58	1537	649	5425
D:	343.12	-1677	99	15640	70	143	-58	1537	649	5425
D:	344.01	-1657	53	15890	70	143	-58	1537	649	5425
D:	344.91	-1657	53	15890	70	143	-58	1537	649	5425
D:	345.81	-1657	53	15890	70	91	-50	1537	649	5425
D:	346.71	-1657	53	15890	3	91	-50	1526	618	5501
D:	347.57	-1581	55	15526	3	91	-50	1526	618	5501
D:	348.46	-1581	55	15526	3	91	-50	1526	618	5501
D:	349.35	-1581	55	15526	3	91	-50	1526	618	5501
D:	350.25	-1581	55	15526	24	-24	-1	1526	618	5501
D:	351.12	-1581	55	15526	24	-24	-1	1526	618	5501
D:	352.00	-1774	82	15890	24	-24	-1	1526	618	5501
D:	352.90	-1774	82	15890	24	-24	-1	1526	618	5501
D:	353.81	-1774	82	15890	24	122	-68	1526	618	5501
D:	354.67	-1774	82	15890	27	122	-68	1526	618	5501
D:	355.56	-1647	10	15608	27	122	-68	1526	618	5501
D:	356.53	-1647	10	15608	27	122	-68	1526	618	5501
D:	357.54	-1647	10	15608	27	37	10	1526	618	5501
D:	358.57	-1647	10	15608	-3	37	10	1526	618	5501
D:	359.49	-1763	104	15418	-3	37	10	1526	618	5501
D:	360.42	-1763	104	15418	-3	37	10	1526	618	5501
D:	361.33	-1763	104	15418	-3	37	10	1526	618	5501
D:	362.23	-1763	104	15418	-2	170	-48	1526	618	5501
D:	363.12	-1763	104	15418	-2	170	-48	1526	618	5501
D:	364.00	-1734	131	15907	-2	170	-48	1526	618	5501
D:	364.89	-1734	131	15907	-2	170	-48	1526	618	5501
D:	365.81	-1734	131	15907	254	132	-71	1526	618	5501
D:	366.70	-1734	131	15907	44	132	-71	1526	618	5621
D:	367.60	-1677	47	15656	44	132	-71	1526	618	5621
D:	368.51	-1677	47	15656	44	132	-71	1526	618	5621
D:	369.42	-1677	47	15656	44	42	-54	1526	618	5621
D:	370.30	-1677	47	15656	60	42	-54	1526	618	5621
D:	371.30	-1733	130	15747	60	42	-54	1544	651	5621
D:	372.30	-1733	130	15747	60	42	-54	1544	651	5621
D:	373.19	-1733	130	15747	60	42	-54	1544	651	5621
D:	374.12	-1733	130	15747	-3	169	-17	1544	651	5621
D:	375.19	-1733	130	15747	-3	169	-17	1544	651	5621
D:	376.16	-1755	160	15971	-3	169	-17	1544	651	5621
D:	377.12	-1755	160	15971	-3	169	-17	1544	651	5621
D:	378.02	-1755	160	15971	-49	86	6	1544	651	5621
D:	378.91	-1755	160	15971	-49	86	6	1544	651	5621
D:	379.89	-1657	90	15573	-49	86	6	1544	651	5621
D:	380.89	-1657	90	15573	-49	86	6	1544	651	5621
D:	382.02	-1657	90	15573	5	114	-24	1544	651	5621
D:	383.00	-1657	90	15573	5	114	-24	1544	651	5621
D:	383.89	-1683	96	15762	5	114	-24	1544	651	5621
D:	384.76	-1683	96	15762	5	114	-24	1544	651	5621
D:	385.63	-1683	96	15762	5	173	-103	1544	651	5621
D:	386.56	-1683	96	15762	41	173	-103	1544	651	5621
D:	387.46	-1559	102	15850	41	173	-103	1544	651	5621
D:	388.32	-1559	102	15850	41	173	-103	1544	651	5621
D:	389.22	-1559	102	15850	41	173	-103	1544	651	5621
D:	390.12	-1559	102	15850	57	162	-60	1544	651	5621
D:	391.19	-1559	102	15850	57	162	-60	1525	617	5502
D:	392.21	-1818	168	15781	57	162	-60	1525	617	5502
D:	393.11	-1818	168	15781	57	162	-60	1525	617	5502
D:	394.00	-1818	168	15781	93	176	-7	1525	617	5502
D:	394.90	-1818	168	15781	93	176	-7	1525	617	5502
D:	395.77	-1549	54	15804	93	176	-7	1525	617	5502
D:	396.67	-1549	54	15804	93	176	-7	1525	617	5502
D:	397.55	-1549	54	15804	93	14	-23	1525	617	5502
D:	398.45	-1549	54	15804	17	14	-23	1525	617	5502
D:	399.35	-1549	72	15758	17	14	-23	1525	617	5502
D:	400.25	-1602	72	15758	17	14	-23	1525	617	5502
D:	401.12	-1602	72	15758	17	14	-23	1525	617	5502
D:	402.02	-1602	72	15758	-21	69	-49	1525	617	5502
D:	403.00	-1602	72	15758	-21	69	-49	1525	617	5502
D:	403.91	-1763	80	15830	-21	69	-49	1525	617	5502
D:	404.80	-1763	80	15830	-21	69	-49	1525	617	5502
D:	405.67	-1763	80	15830	-21	3	-61	1525	617	5502
D:	406.56	-1763	80	15830	17	3	-61	1525	617	5502
D:	407.48	-1696	116	15795	17	3	-61	1525	617	5502
D:	408.36	-1696	116	15795	17	3	-61	1525	617	5502
D:	409.25	-1696	116	15795	17	3	-61	1525	617	5502
D:	410.14	-1696	116	15795	21	231	-47	1525	617	5502
D:	411.12	-1696	116	15795	21	231	-47	1547	651	5485
D:	412.02	-1613	107	15740	21	231	-47	1547	651	5485
D:	412.91	-1613	107	15740	21	231	-47	1547	651	5485
D:	413.85	-1613	107	15740	3	17	2	1547	651	5485
D:	414.71	-1613	107	15740	3	17	2	1547	651	5485
D:	415.63	-1782	126	15984	3	17	2	1547	651	5485
D:	416.57	-1782	126	15984	3	17	2	1547	651	5485
D:	417.47	-1782	126	15984	3	37	40	1547	651	5485
D:	418.35	-1782	126	15984	-48	37	40	1547	651	5485
D:	419.24	-1782	126	15984	-48	37	40	1547	651	5485
D:	420.14	-1595	102	15530	-48	37	40	1547	651	5485
D:	421.06	-1595	102	15530	-48	37	40	1547	651	5485
D:	422.00	-1595	102	15530	-16	224	-102	1547	651	5485
D:	422.89	-1595	102	15530	-16	224	-102	1547	651	5485
D:	423.77	-1613	129	15780	-16	224	-102	1547	651	5485
D:	424.68	-1613	129	15780	-16	224	-102	1547	651	5485
D:	425.56	-1613	129	15780	-16	74	-77	1547	651	5485
D:	426.45	-1613	129	15780	-26	74	-77	1547	651	5485
D:	427.35	-1613	72	15814	-26	74	-77	1547	651	5485
D:	428.25	-1605	72	15814	-26	74	-77	1547	651	5485
D:	429.15	-1605	72	15814	-26	74	-77	1547	651	5485
D:	430.06	-1605	72	15814	105	10	-3	1547	651	5485
D:	431.00	-1605	72	15814	105	10	-3	1526	615	5541
D:	431.88	-1698	42	15608	105	10	-3	1526	615	5541
D:	432.92	-1698	42	15608	105	10	-3	1526	615	5541
D:	434.00	-1698	42	15608	32	97	-17	1526	615	5541
D:	434.89	-1698	42	15608	32	97	-17	1526	615	5541
D:	435.82	-1719	73	15652	32	97	-17	1526	615	5541
D:	436.71	-1719	73	15652	32	97	-17	1526	615	5541
D:	437.62	-1719	73	15652	32	66	11	1526	615	5541
D:	438.56	-1719	73	15652	55	66	11	1526	615	5541
D:	439.45	-1695	142	15841	55	66	11	1526	615	5541
D:	440.33	-1695	142	15841	55	66	11	1526	615	5541
D:	441.33	-1695	142	15841	55	66	11	1526	615	5541
D:	442.33	-1695	142	15841	-10	7	-89	1526	615	5541
D:	443.22	-1695	142	15841	-10	7	-89	1526	615	5541
D:	444.12	-1751	119	15639	-10	7	-89	1526	615	5541
D:	445.06	-1751	119	15639	-10	7	-89	1526	615	5541
D:	446.00	-1751	119	15639	43	91	-17	1526	615	5541
D:	446.90	-1751	119	15639	43	91	-17	1526	615	5541
D:	447.93	-1709	72	15889	43	91	-17	1526	615	5541
D:	449.01	-1709	72	15889	43	91	-17	1526	615	5541
D:	449.91	-1709	72	15889	-131	197	41	1526	615	5541
D:	450.80	-1709	72	15889	-131	197	41	1536	659	5318
D:	451.73	-1627	57	15960	-131	197	41	1536	659	5318
D:	452.60	-1627	57	15960	-131	197	41	1536	659	5318
D:	453.57	-1627	57	15960	-131	134	-50	1536	659	5318
D:	454.46	-1627	57	15960	-134	134	-50	1536	659	5318
D:	455.36	-1624	66	15584	-134	134	-50	1536	659	5318
D:	456.23	-1624	66	15584	-134	134	-50	1536	659	5318
D:	457.13	-1624	66	15584	-134	134	-50	1536	659	5318
D:	458.17	-1624	66	15584	-109	80	-1	1536	659	5318
D:	459.13	-1624	66	15584	-109	80	-1	1536	659	5318
D:	460.06	-1757	63	15850	-109	80	-1	1536	659	5318
D:	461.00	-1757	63	15850	-109	80	-1	1536	659	5318
D:	461.89	-1757	63	15850	-35	168	-102	1536	659	5318
D:	462.83	-1757	63	15850	-35	168	-102	1536	659	5318
D:	463.69	-1587	42	15644	-35	168	-102	1536	659	5318
D:	464.58	-1587	42	15644	-35	168	-102	1536	659	5318
D:	465.47	-1587	42	15644	-35	191	-35	1536	659	5318
D:	466.37	-1587	42	15644	34	191	-35	1536	659	5318
D:	467.26	-1587	42	15644	34	191	-35	1536	659	5318
D:	468.14	-1829	109	15939	34	191	-35	1536	659	5318
D:	469.06	-1829	109	15939	34	191	-35	1536	659	5318
D:	470.00	-1829	109	15939	15	100	-90	1536	659	5318
D:	470.89	-1829	109	15939	15	100	-90	1548	634	5496
D:	471.75	-1777	146	15891	15	100	-90	1548	634	5496
D:	472.64	-1777	146	15891	15	100	-90	1548	634	5496
D:	473.65	-1777	146	15891	15	136	-26	1548	634	5496
D:	474.57	-1777	146	15891	47	136	-26	1548	634	5496
D:	475.47	-1539	93	15648	47	136	-26	1548	634	5496
D:	476.39	-1539	93	15648	47	136	-26	1548	634	5496
D:	477.27	-1539	93	15648	47	136	-26	1548	634	5496
D:	478.33	-1539	93	15648	28	134	-39	1548	634	5496
D:	479.33	-1539	143	15883	28	134	-39	1548	634	5496
D:	480.24	-1806	143	15883	28	134	-39	1548	634	5496
D:	481.12	-1806	143	15883	28	134	-39	1548	634	5496
D:	482.05	-1806	143	15883	49	16	-52	1548	634	5496
D:	483.00	-1806	143	15883	49	16	-52	1548	634	5496
D:	483.91	-1649	126	15809	49	16	-52	1548	634	5496
D:	484.79	-1649	126	15809	49	16	-52	1548	634	5496
D:	485.70	-1649	126	15809	49	35	2	1548	634	5496
D:	486.57	-1649	126	15809	74	35	2	1548	634	5496
D:	487.47	-1617	53	15731	74	35	2	1548	634	5496
D:	488.35	-1617	53	15731	74	35	2	1548	634	5496
D:	489.25	-1617	53	15731	74	35	2	1548	634	5496
D:	490.15	-1617	53	15731	-2	58	-74	1548	634	5496
D:	491.12	-1617	53	15731	-2	58	-74	1543	658	5455
D:	492.02	-1648	148	16082	-2	58	-74	1543	658	5455
D:	492.91	-1648	148	16082	-2	58	-74	1543	658	5455
D:	493.80	-1648	148	16082	-2	17	-52	1543	658	5455
D:	494.68	-1648	148	16082	-67	17	-52	1543	658	5455
D:	495.54	-1487	66	15728	-67	17	-52	1543	658	5455
D:	496.48	-1487	66	15728	-67	17	-52	1543	658	5455
D:	497.40	-1487	66	15728	-67	101	-48	1543	658	5455
D:	498.47	-1487	66	15728	-34	101	-48	1543	658	5455
D:	499.48	-1661	103	15912	-34	101	-48	1543	658	5455
D:	500.37	-1661	103	15912	-34	101	-48	1543	658	5455
D:	501.26	-1661	103	15912	-34	101	-48	1543	658	5455
D:	502.27	-1661	103	15912	-62	95	-50	1543	658	5455
D:	503.29	-1661	103	15912	-62	95	-50	1543	658	5455
D:	504.18	-1685	158	15903	-62	95	-50	1543	658	5455
D:	505.12	-1685	158	15903	-62	95	-50	1543	658	5455
D:	506.06	-1685	158	15903	-49	-42	-83	1543	658	5455
D:	507.02	-1685	158	15903	-49	-42	-83	1543	658	5455
D:	507.92	-1652	116	15524	-49	-42	-83	1543	658	5455
D:	508.84	-1652	116	15524	-49	-42	-83	1543	658	5455
D:	509.73	-1652	116	15524	-49	-62	-46	1543	658	5455
D:	510.61	-1652	116	15524	18	-62	-46	1542	639	5574
D:	511.48	-1741	160	15918	18	-62	-46	1542	639	5574
D:	512.38	-1741	160	15918	18	-62	-46	1542	639	5574
D:	513.27	-1741	160	15918	18	-62	-46	1542	639	5574
D:	514.18	-1741	160	15918	-43	-17	-7	1542	639	5574
D:	515.12	-1741	160	15918	-43	-17	-7	1542	639	5574
D:	516.02	-1696	132	15906	-43	-17	-7	1542	639	5574
D:	516.89	-1696	132	15906	-43	-17	-7	1542	639	5574
D:	517.90	-1696	132	15906	-22	-138	41	1542	639	5574
D:	519.00	-1696	132	15906	-22	-138	41	1542	639	5574
D:	519.89	-1729	159	15826	-22	-138	41	1542	639	5574
D:	520.78	-1729	159	15826	-22	-138	41	1542	639	5574
D:	521.67	-1729	159	15826	-22	-146	-27	1542	639	5574
D:	522.57	-1729	159	15826	-52	-146	-27	1542	639	5574
D:	523.47	-1696	115	15762	-52	-146	-27	1542	639	5574
D:	524.34	-1696	115	15762	-52	-146	-27	1542	639	5574
D:	525.23	-1696	115	15762	-52	-146	-27	1542	639	5574
D:	526.15	-1696	115	15762	-91	-64	-24	1542	639	5574
D:	527.11	-1696	115	15762	-91	-64	-24	1542	639	5574
D:	528.00	-1675	78	15432	-91	-64	-24	1542	639	5574
D:	528.89	-1675	78	15432	-91	-64	-24	1542	639	5574
D:	529.81	-1675	78	15432	-91	11	50	1542	639	5574
D:	530.69	-1675	78	15432	-7	11	50	1542	639	5526
D:	531.60	-1685	98	15885	-7	11	50	1542	639	5526
D:	532.59	-1685	98	15885	-7	11	50	1542	639	5526
D:	533.65	-1685	98	15885	-7	-75	56	1542	639	5526
D:	534.58	-1685	98	15885	-51	-75	56	1535	666	5526
D:	535.48	-1714	68	15752	-51	-75	56	1535	666	5526
D:	536.36	-1714	68	15752	-51	-75	56	1535	666	5526
D:	537.23	-1714	68	15752	-51	-75	56	1535	666	5526
D:	538.10	-1714	68	15752	-27	-11	0	1535	666	5526
D:	539.00	-1714	68	15752	-27	-11	0	1535	666	5526
D:	539.90	-1596	132	15768	-27	-11	0	1535	666	5526
D:	540.79	-1596	132	15768	-27	-11	0	1535	666	5526
D:	541.68	-1596	132	15768	-27	10	-10	1535	666	5526
D:	542.55	-1596	132	15768	-92	10	-10	1535	666	5526
D:	543.46	-1696	127	15858	-92	10	-10	1535	666	5526
D:	544.36	-1696	127	15858	-92	10	-10	1535	666	5526
D:	545.28	-1696	127	15858	-92	10	-10	1535	666	5526
D:	546.20	-1696	127	15858	-88	182	-96	1535	666	5526
D:	547.12	-1696	127	15858	-88	182	-96	1535	666	5526
D:	548.06	-1603	138	15767	-88	182	-96	1535	666	5526
D:	549.00	-1603	138	15767	-88	182	-96	1535	666	5526
D:	549.89	-1603	138	15767	-38	61	-63	1535	666	5526
D:	550.77	-1603	138	15767	-38	61	-63	1535	666	5526
D:	551.66	-1675	102	15889	-38	61	-63	1535	666	5526
D:	552.58	-1675	102	15889	-38	61	-63	1535	666	5526
D:	553.46	-1675	102	15889	-38	79	-59	1535	666	5526
D:	554.36	-1675	102	15889	-95	79	-59	1535	666	5538
D:	555.25	-1675	102	15889	-95	79	-59	1518	646	5538
D:	556.12	-1655	203	15780	-95	79	-59	1518	646	5538
D:	557.00	-1655	203	15780	-95	79	-59	1518	646	5538
D:	557.89	-1655	203	15780	-46	-4	-10	1518	646	5538
D:	558.78	-1655	203	15780	-46	-4	-10	1518	646	5538
D:	559.67	-1596	51	15658	-46	-4	-10	1518	646	5538
D:	560.56	-1596	51	15658	-46	-4	-10	1518	646	5538
D:	561.46	-1596	51	15658	-46	28	-45	1518	646	5538
D:	562.36	-1596	51	15658	-10	28	-45	1518	646	5538
D:	563.24	-1596	51	15658	-10	28	-45	1518	646	5538
D:	564.14	-1761	104	15814	-10	28	-45	1518	646	5538
D:	565.06	-1761	104	15814	-10	28	-45	1518	646	5538
D:	566.00	-1761	104	15814	6	-33	-35	1518	646	5538
D:	567.02	-1761	104	15814	6	-33	-35	1518	646	5538
D:	568.00	-1757	138	15908	6	-33	-35	1518	646	5538
D:	568.90	-1757	138	15908	6	-33	-35	1518	646	5538
D:	569.83	-1757	138	15908	6	57	-58	1518	646	5538
D:	570.71	-1757	138	15908	2	57	-58	1518	646	5538
D:	571.57	-1643	12	15719	2	57	-58	1518	646	5538
D:	572.47	-1643	12	15719	2	57	-58	1518	646	5538
D:	573.35	-1643	12	15719	2	57	-58	1518	646	5538
D:	574.25	-1643	12	15719	-6	88	-73	1518	646	5538
D:	575.15	-1643	12	15719	-6	88	-73	1544	629	5491
D:	576.06	-1739	134	15856	-6	88	-73	1544	629	5491
D:	577.00	-1739	134	15856	-6	88	-73	1544	629	5491
D:	577.92	-1739	134	15856	-72	90	-16	1544	629	5491
D:	578.81	-1739	134	15856	-72	90	-16	1544	629	5491
D:	579.74	-1544	36	15386	-72	90	-16	1544	629	5491
D:	580.60	-1544	36	15386	-72	90	-16	1544	629	5491
D:	581.56	-1544	36	15386	-72	88	-6	1544	629	5491
D:	582.48	-1544	36	15386	97	88	-6	1544	629	5491
D:	583.38	-1518	70	15694	97	88	-6	1544	629	5491
D:	584.27	-1518	70	15694	97	88	-6	1544	629	5491
D:	585.17	-1518	70	15694	97	88	-6	1544	629	5491
D:	586.13	-1518	70	15694	-41	109	-49	1544	629	5491
D:	587.13	-1518	70	15694	-41	109	-49	1544	629	5491
D:	588.01	-1628	157	15738	-41	109	-49	1544	629	5491
D:	589.00	-1628	157	15738	-41	109	-49	1544	629	5491
D:	589.91	-1628	157	15738	-3	60	-82	1544	629	5491
D:	590.84	-1628	157	15738	-3	60	-82	1544	629	5491
D:	591.87	-1572	19	15670	-3	60	-82	1544	629	5491
D:	592.78	-1572	19	15670	-3	60	-82	1544	629	5491
D:	593.67	-1572	19	15670	-3	186	-42	1544	629	5491
D:	594.56	-1572	19	15670	-16	186	-42	1518	628	5596
D:	595.46	-1729	114	15756	-16	186	-42	1518	628	5596
D:	596.35	-1729	114	15756	-16	186	-42	1518	628	5596
D:	597.25	-1729	114	15756	-16	186	-42	1518	628	5596
D:	598.15	-1729	114	15756	-40	182	-94	1518	628	5596
D:	599.16	-1729	114	15756	-40	182	-94	1518	628	5596
D:	600.24	-1671	39	15752	-40	182	-94	1518	628	5596
D:	601.16	-1671	39	15752	-40	182	-94	1518	628	5596
D:	602.12	-1671	39	15752	36	52	25	1518	628	5596
D:	603.06	-1671	39	15752	36	52	25	1518	628	5596
D:	604.00	-1541	9	15915	36	52	25	1518	628	5596
D:	604.89	-1541	9	15915	36	52	25	1518	628	5596
D:	605.78	-1541	9	15915	36	178	28	1518	628	5596
D:	606.65	-1541	9	15915	11	178	28	1518	628	5596
D:	607.58	-1657	217	15914	11	178	28	1518	628	5596
D:	608.48	-1657	217	15914	11	178	28	1518	628	5596
D:	609.38	-1657	217	15914	11	178	28	1518	628	5596
D:	610.25	-1657	217	15914	63	144	-40	1518	628	5596
D:	611.15	-1657	217	15914	63	144	-40	1518	628	5596
D:	612.12	-1627	81	15430	63	144	-40	1518	628	5596
D:	613.01	-1627	81	15430	63	144	-40	1518	628	5596
D:	613.90	-1627	81	15430	85	175	-103	1518	628	5596
D:	614.78	-1627	81	15430	85	175	-103	1525	646	5496
D:	615.72	-1613	54	15707	85	175	-103	1525	646	5496
D:	616.72	-1613	54	15707	85	175	-103	1525	646	5496
D:	617.64	-1613	54	15707	85	169	-52	1525	646	5496
D:	618.56	-1613	54	15707	183	169	-52	1525	646	5496
D:	619.45	-1651	83	15903	183	169	-52	1525	646	5496
D:	620.37	-1651	83	15903	183	169	-52	1525	646	5496
D:	621.30	-1651	83	15903	183	169	-52	1525	646	5496
D:	622.19	-1651	83	15903	239	137	35	1525	646	5496
D:	623.12	-1651	83	15903	239	137	35	1525	646	5496
D:	624.01	-1678	110	15750	239	137	35	1525	646	5496
D:	624.91	-1678	110	15750	239	137	35	1525	646	5496
D:	625.80	-1678	110	15750	239	87	-92	1525	646	5496
D:	626.75	-1678	110	15750	52	87	-92	1525	646	5496
D:	627.80	-1744	80	15613	52	87	-92	1525	646	5496
D:	628.71	-1744	80	15613	52	87	-92	1525	646	5496
D:	629.58	-1744	80	15613	52	151	-90	1525	646	5496
D:	630.46	-1744	80	15613	34	151	-90	1525	646	5496
D:	631.35	-1744	164	15787	34	151	-90	1525	646	5496
D:	632.24	-1667	164	15787	34	151	-90	1525	646	5496
D:	633.14	-1667	164	15787	34	151	-90	1525	646	5496
D:	634.05	-1667	164	15787	-28	73	-20	1525	646	5496
D:	635.00	-1667	164	15787	-28	73	-20	1534	626	5465
D:	635.91	-1624	92	15542	-28	73	-20	1534	626	5465
D:	636.81	-1624	92	15542	-28	73	-20	1534	626	5465
D:	637.69	-1624	92	15542	-28	-26	-56	1534	626	5465
D:	638.58	-1624	92	15542	-50	-26	-56	1534	626	5465
D:	639.46	-1749	179	15770	-50	-26	-56	1534	626	5465
D:	640.36	-1749	179	15770	-50	-26	-56	1534	626	5465
D:	641.25	-1749	179	15770	-50	-26	-56	1534	626	5465
D:	642.15	-1749	179	15770	-39	146	-62	1534	626	5465
D:	643.13	-1749	179	15770	-39	146	-62	1534	626	5465
D:	644.06	-1745	145	15739	-39	146	-62	1534	626	5465
D:	645.00	-1745	145	15739	-39	146	-62	1534	626	5465
D:	645.90	-1745	145	15739	-1	157	-34	1534	626	5465
D:	646.78	-1745	145	15739	-1	157	-34	1534	626	5465
D:	647.67	-1630	77	15683	-1	157	-34	1534	626	5465
D:	648.56	-1630	77	15683	-1	157	-34	1534	626	5465
D:	649.52	-1630	77	15683	-1	80	8	1534	626	5465
D:	650.54	-1630	77	15683	13	80	8	1534	626	5465
D:	651.45	-1768	106	15856	13	80	8	1534	626	5465
D:	652.35	-1768	106	15856	13	80	8	1534	626	5465
D:	653.24	-1768	106	15856	13	80	8	1534	626	5465
D:	654.12	-1768	106	15856	-9	121	54	1534	626	5465
D:	655.06	-1768	106	15856	-9	121	54	1527	613	5372
D:	656.00	-1618	62	15803	-9	121	54	1527	613	5372
D:	656.89	-1618	62	15803	-9	121	54	1527	613	5372
D:	657.87	-1618	62	15803	91	145	-25	1527	613	5372
D:	658.93	-1618	62	15803	91	145	-25	1527	613	5372
D:	659.87	-1675	67	15760	91	145	-25	1527	613	5372
D:	660.78	-1675	67	15760	91	145	-25	1527	613	5372
D:	661.65	-1675	67	15760	91	20	45	1527	613	5372
D:	662.56	-1675	67	15760	84	20	45	1527	613	5372
D:	663.46	-1748	88	15837	84	20	45	1527	613	5372
D:	664.36	-1748	88	15837	84	20	45	1527	613	5372
D:	665.25	-1748	88	15837	84	20	45	1527	613	5372
D:	666.13	-1748	88	15837	-15	144	16	1527	613	5372
D:	667.06	-1748	88	15837	-15	144	16	1527	613	5372
D:	667.93	-1525	44	15709	-15	144	16	1527	613	5372
D:	668.82	-1525	44	15709	-15	144	16	1527	613	5372
D:	669.69	-1525	44	15709	-15	24	20	1527	613	5372
D:	670.57	-1525	44	15709	-41	24	20	1527	613	5372
D:	671.47	-1746	33	15632	-41	24	20	1527	613	5372
D:	672.36	-1746	33	15632	-41	24	20	1527	613	5372
D:	673.24	-1746	33	15632	-41	24	20	1527	613	5372
D:	674.14	-1746	33	15632	-40	119	-54	1527	613	5372
D:	675.10	-1746	33	15632	-40	119	-54	1531	640	5469
D:	676.00	-1555	102	15793	-40	119	-54	1531	640	5469
D:	676.89	-1555	102	15793	-40	119	-54	1531	640	5469
D:	677.82	-1555	102	15793	216	195	-69	1531	640	5469
D:	678.69	-1555	102	15793	85	195	-69	1531	640	5469
D:	679.58	-1510	90	15374	85	195	-69	1531	640	5469
D:	680.46	-1510	90	15374	85	195	-69	1531	640	5469
D:	681.34	-1510	90	15374	85	195	-69	1531	640	5469
D:	682.23	-1510	90	15374	151	46	-66	1531	640	5469
D:	683.12	-1510	90	15374	151	46	-66	1531	640	5469
D:	684.00	-1672	82	15994	151	46	-66	1531	640	5469
D:	684.89	-1672	82	15994	151	46	-66	1531	640	5469
D:	685.77	-1672	82	15994	151	99	-38	1531	640	5469
D:	686.67	-1672	82	15994	16	99	-38	1531	640	5469
D:	687.55	-1694	126	15737	16	99	-38	1531	640	5469
D:	688.46	-1694	126	15737	16	99	-38	1531	640	5469
D:	689.34	-1694	126	15737	16	99	-38	1531	640	5469
D:	690.22	-1694	126	15737	58	167	47	1531	640	5469
D:	691.12	-1694	126	15737	58	167	47	1531	640	5469
D:	692.01	-1709	72	15809	58	167	47	1531	640	5469
D:	692.88	-1709	72	15809	58	167	47	1531	640	5469
D:	693.79	-1709	72	15809	-198	127	-76	1531	640	5469
D:	694.69	-1709	72	15809	-4	127	-76	1531	640	5469
D:	695.58	-1702	133	15986	-4	127	-76	1531	640	5469
D:	696.45	-1702	133	15986	-4	127	-76	1531	640	5469
D:	697.35	-1702	133	15986	-4	127	-76	1531	640	5469
D:	698.23	-1702	133	15986	108	189	-30	1531	640	5469
D:	699.11	-1702	133	15986	108	189	-30	1531	623	5548
D:	700.00	-1692	24	15752	108	189	-30	1531	623	5548
D:	700.89	-1692	24	15752	108	189	-30	1531	623	5548
D:	701.85	-1692	24	15752	47	132	-58	1531	623	5548
D:	702.75	-1692	24	15752	47	132	-58	1531	623	5548
D:	703.63	-1580	7	15613	47	132	-58	1531	623	5548
D:	704.55	-1580	7	15613	47	132	-58	1531	623	5548
D:	705.45	-1580	7	15613	47	283	-89	1531	623	5548
D:	706.34	-1580	7	15613	140	283	-89	1531	623	5548
D:	707.22	-1580	7	15613	140	283	-89	1531	623	5548
D:	708.14	-2190	406	16582	140	283	-89	1531	623	5548
D:	709.06	-2190	406	16582	140	283	-89	1531	623	5548
D:	710.00	-2190	406	16582	214	186	-148	1531	623	5548
D:	710.89	-2190	406	16582	214	186	-148	1531	623	5548
D:	711.88	-1518	20	15633	214	186	-148	1531	623	5548
D:	712.81	-1518	20	15633	214	186	-148	1531	623	5548
D:	713.75	-1518	20	15633	214	20	-78	1531	623	5548
D:	714.63	-1518	20	15633	109	20	-78	1531	623	5548
D:	715.56	-1587	54	15902	109	20	-78	1531	623	5548
D:	716.45	-1587	54	15902	109	20	-78	1531	623	5548
D:	717.35	-1587	54	15902	109	42	47	1531	623	5548
D:	718.38	-1587	54	15902	79	42	47	1523	635	5554
D:	719.35	-1587	93	15946	79	42	47	1523	635	5554
D:	720.25	-1571	93	15946	79	42	47	1523	635	5554
D:	721.14	-1571	93	15946	79	42	47	1523	635	5554
D:	722.01	-1571	93	15946	-74	170	-111	1523	635	5554
D:	722.89	-1571	93	15946	-74	170	-111	1523	635	5554
D:	723.83	-1702	36	15744	-74	170	-111	1523	635	5554
D:	724.83	-1702	36	15744	-74	170	-111	1523	635	5554
D:	725.75	-1702	36	15744	182	137	-75	1523	635	5554
D:	726.65	-1702	36	15744	34	137	-75	1523	635	5554
D:	727.57	-1769	48	15860	34	137	-75	1523	635	5554
D:	728.47	-1769	48	15860	34	137	-75	1523	635	5554
D:	729.36	-1769	48	15860	34	137	-75	1523	635	5554
D:	730.25	-1769	48	15860	-2	150	-90	1523	635	5554
D:	731.14	-1769	48	15860	-2	150	-90	1523	635	5554
D:	732.06	-1660	142	15820	-2	150	-90	1523	635	5554
D:	733.00	-1660	142	15820	-2	150	-90	1523	635	5554
D:	733.89	-1660	142	15820	-15	45	-79	1523	635	5554
D:	734.83	-1660	142	15820	-15	45	-79	1523	635	5554
D:	735.88	-1566	80	15548	-15	45	-79	1523	635	5554
D:	736.83	-1566	80	15548	-15	45	-79	1523	635	5554
D:	737.72	-1566	80	15548	-15	77	39	1523	635	5554
D:	738.60	-1566	80	15548	-9	77	39	1531	606	5497
D:	739.56	-1797	126	15942	-9	77	39	1531	606	5497
D:	740.47	-1797	126	15942	-9	77	39	1531	606	5497
D:	741.35	-1797	126	15942	-9	77	39	1531	606	5497
D:	742.25	-1797	126	15942	-2	136	-32	1531	606	5497
D:	743.30	-1551	140	15734	-2	136	-32	1531	606	5497
D:	744.32	-1551	140	15734	-2	136	-32	1531	606	5497
D:	745.23	-1551	140	15734	-2	136	-32	1531	606	5497
D:	746.12	-1551	140	15734	-78	123	-40	1531	606	5497
D:	747.02	-1551	140	15734	-78	123	-40	1531	606	5497
D:	747.92	-1628	26	15787	-78	123	-40	1531	606	5497
D:	748.84	-1628	26	15787	-78	123	-40	1531	606	5497
D:	749.78	-1628	26	15787	178	107	-26	1531	606	5497
D:	750.67	-1628	26	15787	23	107	-26	1531	606	5497
D:	751.56	-1742	158	15709	23	107	-26	1531	606	5497
D:	752.47	-1742	158	15709	23	107	-26	1531	606	5497
D:	753.37	-1742	158	15709	23	107	-26	1531	606	5497
D:	754.28	-1742	158	15709	58	108	-72	1531	606	5497
D:	755.19	-1742	158	15709	58	108	-72	1531	606	5497
D:	756.21	-1609	106	15698	58	108	-72	1531	606	5497
D:	757.22	-1609	106	15698	58	108	-72	1531	606	5497
D:	758.25	-1609	106	15698	1	140	-12	1531	606	5497
D:	759.21	-1609	106	15698	1	140	-12	1523	654	5674
D:	760.12	-1747	88	15862	1	140	-12	1523	654	5674
D:	761.01	-1747	88	15862	1	140	-12	1523	654	5674
D:	761.90	-1747	88	15862	20	29	54	1523	654	5674
D:	762.91	-1747	88	15862	20	29	54	1523	654	5674
D:	763.86	-1624	192	15938	20	29	54	1523	654	5674
D:	764.78	-1624	192	15938	20	29	54	1523	654	5674
D:	765.67	-1624	192	15938	20	-2	37	1523	654	5674
D:	766.56	-1624	192	15938	77	-2	37	1523	654	5674
D:	767.45	-1658	54	15548	77	-2	37	1523	654	5674
D:	768.56	-1658	54	15548	77	-2	37	1523	654	5674
D:	769.56	-1658	54	15548	77	133	-37	1523	654	5674
D:	770.46	-1658	54	15548	-7	133	-37	1523	654	5674
D:	771.34	-1658	118	15769	-7	133	-37	1523	654	5674
D:	772.22	-1739	118	15769	-7	133	-37	1523	654	5674
D:	773.12	-1739	118	15769	-7	133	-37	1523	654	5674
D:	774.12	-1739	118	15769	19	165	-41	1523	654	5674
D:	775.06	-1739	118	15769	19	165	-41	1523	654	5674
D:	776.00	-1668	136	15871	19	165	-41	1523	654	5674
D:	776.89	-1668	136	15871	19	165	-41	1523	654	5674
D:	777.82	-1668	136	15871	19	65	-29	1523	654	5674
D:	778.71	-1668	136	15871	90	65	-29	1531	595	5571
D:	779.58	-1558	38	15397	90	65	-29	1531	595	5571
D:	780.47	-1558	38	15397	90	65	-29	1531	595	5571
D:	781.36	-1558	38	15397	90	65	-29	1531	595	5571
D:	782.26	-1558	38	15397	22	46	8	1531	595	5571
D:	783.14	-1558	38	15397	22	46	8	1531	595	5571
D:	784.06	-1667	104	15930	22	46	8	1531	595	5571
D:	784.92	-1667	104	15930	22	46	8	1531	595	5571
D:	785.85	-1667	104	15930	89	139	9	1531	595	5571
D:	786.88	-1667	104	15930	89	139	9	1531	595	5571
D:	787.93	-1643	86	15826	89	139	9	1531	595	5571
D:	788.86	-1643	86	15826	89	139	9	1531	595	5571
D:	789.75	-1643	86	15826	89	14	-19	1531	595	5571
D:	790.64	-1643	86	15826	119	14	-19	1531	595	5571
D:	791.57	-1759	80	15860	119	14	-19	1531	595	5571
D:	792.47	-1759	80	15860	119	14	-19	1531	595	5571
D:	793.35	-1759	80	15860	119	14	-19	1531	595	5571
D:	794.23	-1759	80	15860	53	76	0	1531	595	5571
D:	795.13	-1759	80	15860	53	76	0	1531	595	5571
D:	796.06	-1757	46	15945	53	76	0	1531	595	5571
D:	797.00	-1757	46	15945	53	76	0	1531	595	5571
D:	797.89	-1757	46	15945	34	16	-77	1531	595	5571
D:	798.76	-1757	46	15945	34	16	-77	1526	641	5432
D:	799.68	-1613	136	15839	34	16	-77	1526	641	5432
D:	800.55	-1613	136	15839	34	16	-77	1526	641	5432
D:	801.51	-1613	136	15839	34	150	-26	1526	641	5432
D:	802.53	-1613	136	15839	-28	150	-26	1526	641	5432
D:	803.52	-1698	88	15540	-28	150	-26	1526	641	5432
D:	804.52	-1698	88	15540	-28	150	-26	1526	641	5432
D:	805.47	-1698	88	15540	-28	83	31	1526	641	5432
D:	806.36	-1698	88	15540	68	83	31	1526	641	5432
D:	807.25	-1698	88	15540	68	83	31	1526	641	5432
D:	808.15	-1764	46	15702	68	83	31	1526	641	5432
D:	809.06	-1764	46	15702	68	83	31	1526	641	5432
D:	810.00	-1764	46	15702	52	-4	184	1526	641	5432
D:	810.89	-1764	46	15702	52	-4	184	1526	641	5432
D:	811.74	-1601	97	15839	52	-4	184	1526	641	5432
D:	812.61	-1601	97	15839	52	-4	184	1526	641	5432
D:	813.58	-1601	97	15839	52	78	26	1526	641	5432
D:	814.48	-1601	97	15839	56	78	26	1526	641	5432
D:	815.35	-1692	49	15914	56	78	26	1526	641	5432
D:	816.23	-1692	49	15914	56	78	26	1526	641	5432
D:	817.11	-1692	49	15914	56	78	26	1526	641	5432
D:	818.02	-1692	49	15914	26	145	-72	1526	641	5432
D:	819.00	-1692	49	15914	26	145	-72	1521	617	5441
D:	819.88	-1624	138	15882	26	145	-72	1521	617	5441
D:	820.76	-1624	138	15882	26	145	-72	1521	617	5441
D:	821.63	-1624	138	15882	26	209	-9	1521	617	5441
D:	822.55	-1624	138	15882	9	209	-9	1521	617	5441
D:	823.47	-1746	52	15743	9	209	-9	1521	617	5441
D:	824.35	-1746	52	15743	9	209	-9	1521	617	5441
D:	825.23	-1746	52	15743	9	209	-9	1521	617	5441
D:	826.15	-1746	52	15743	3	108	-14	1521	617	5441
D:	827.12	-1746	52	15743	3	108	-14	1521	617	5441
D:	828.00	-1773	138	15730	3	108	-14	1521	617	5441
D:	828.88	-1773	138	15730	3	108	-14	1521	617	5441
D:	829.77	-1773	138	15730	3	117	-38	1521	617	5441
D:	830.66	-1773	138	15730	25	117	-38	1521	617	5441
D:	831.58	-1684	159	15866	25	117	-38	1521	617	5441
D:	832.46	-1684	159	15866	25	117	-38	1521	617	5441
D:	833.40	-1684	159	15866	25	117	-38	1521	617	5441
D:	834.27	-1684	159	15866	35	83	-10	1521	617	5441
D:	835.17	-1684	159	15866	35	83	-10	1521	617	5441
D:	836.12	-1544	156	15627	35	83	-10	1521	617	5441
D:	837.02	-1544	156	15627	35	83	-10	1521	617	5441
D:	837.92	-1544	156	15627	32	67	-86	1521	617	5441
D:	838.85	-1544	156	15627	32	67	-86	1521	652	5718
D:	839.83	-1770	202	15818	32	67	-86	1521	652	5718
D:	840.78	-1770	202	15818	32	67	-86	1521	652	5718
D:	841.65	-1770	202	15818	32	39	-21	1521	652	5718
D:	842.57	-1770	202	15818	55	39	-21	1531	652	5718
D:	843.45	-1709	114	15789	55	39	-21	1531	652	5718
D:	844.35	-1709	114	15789	55	39	-21	1531	652	5718
D:	845.30	-1709	114	15789	55	39	-21	1531	652	5718
D:	846.18	-1709	114	15789	-21	44	10	1531	652	5718
D:	847.12	-1709	114	15789	-21	44	10	1531	652	5718
D:	848.00	-1720	90	15747	-21	44	10	1531	652	5718
D:	848.88	-1720	90	15747	-21	44	10	1531	652	5718
D:	849.76	-1720	90	15747	235	31	-33	1531	652	5718
D:	850.65	-1720	90	15747	36	31	-33	1531	652	5718
D:	851.57	-1720	108	15836	36	31	-33	1531	652	5718
D:	852.46	-1720	108	15836	36	31	-33	1531	652	5718
D:	853.34	-1720	108	15836	36	31	-33	1531	652	5718
D:	854.26	-1720	108	15836	54	94	-57	1531	652	5718
D:	855.15	-1720	108	15836	54	94	-57	1531	652	5718
D:	856.06	-1587	103	15546	54	94	-57	1531	652	5718
D:	857.00	-1587	103	15546	54	94	-57	1531	652	5718
D:	857.90	-1587	103	15546	-133	-29	-89	1531	652	5718
D:	858.80	-1587	103	15546	-133	-29	-89	1531	652	5718
D:	859.71	-1956	57	15986	-133	-29	-89	1531	652	5718
D:	860.61	-1956	57	15986	-133	-29	-89	1531	652	5718
D:	861.58	-1956	57	15986	-133	95	5	1531	652	5718
D:	862.48	-1956	57	15986	-76	95	5	1528	602	5568
D:	863.34	-1956	102	15902	-76	95	5	1528	602	5568
D:	864.25	-1606	102	15902	-76	95	5	1528	602	5568
D:	865.15	-1606	102	15902	-76	95	5	1528	602	5568
D:	866.12	-1606	102	15902	-22	121	-112	1528	602	5568
D:	867.00	-1606	102	15902	-22	121	-112	1528	602	5568
D:	868.05	-1645	140	15787	-22	121	-112	1528	602	5568
D:	869.09	-1645	140	15787	-22	121	-112	1528	602	5568
D:	870.00	-1645	140	15787	14	2	-35	1528	602	5568
D:	870.89	-1645	140	15787	14	2	-35	1528	602	5568
D:	871.79	-1846	179	15770	14	2	-35	1528	602	5568
D:	872.69	-1846	179	15770	14	2	-35	1528	602	5568
D:	873.55	-1846	179	15770	14	-46	10	1528	602	5568
D:	874.51	-1846	179	15770	-97	-46	10	1528	602	5568
D:	875.50	-1730	129	15633	-97	-46	10	1528	602	5568
D:	876.41	-1730	129	15633	-97	-46	10	1528	602	5568
D:	877.31	-1730	129	15633	-97	-46	10	1528	602	5568
D:	878.19	-1730	129	15633	-117	-99	0	1528	602	5568
D:	879.10	-1730	129	15633	-117	-99	0	1528	602	5568
D:	880.00	-1646	16	15787	-117	-99	0	1528	602	5568
D:	880.89	-1646	16	15787	-117	-99	0	1528	602	5568
D:	881.78	-1646	16	15787	-117	-126	-58	1528	602	5568
D:	882.67	-1646	16	15787	-69	-126	-58	1532	643	5342
D:	883.56	-1611	196	15915	-69	-126	-58	1532	643	5342
D:	884.44	-1611	196	15915	-69	-126	-58	1532	643	5342
D:	885.34	-1611	196	15915	-69	-126	-58	1532	643	5342
D:	886.25	-1611	196	15915	17	63	-121	1532	643	5342
D:	887.15	-1611	196	15915	17	63	-121	1532	643	5342
D:	888.05	-1591	136	15519	17	63	-121	1532	643	5342
D:	889.00	-1591	136	15519	17	63	-121	1532	643	5342
D:	889.89	-1591	136	15519	-66	29	12	1532	643	5342
D:	890.84	-1591	136	15519	-66	29	12	1532	643	5342
D:	891.79	-1637	208	15910	-66	29	12	1532	643	5342
D:	892.70	-1637	208	15910	-66	29	12	1532	643	5342
D:	893.58	-1637	208	15910	-66	-78	25	1532	643	5342
D:	894.47	-1637	208	15910	-43	-78	25	1532	643	5342
D:	895.37	-1598	55	15875	-43	-78	25	1532	643	5342
D:	896.26	-1598	55	15875	-43	-78	25	1532	643	5342
D:	897.16	-1598	55	15875	-43	-78	25	1532	643	5342
D:	898.11	-1598	55	15875	-51	29	-22	1532	643	5342
D:	899.02	-1598	55	15875	-51	29	-22	1532	643	5342
D:	900.14	-1628	86	15511	-51	29	-22	1532	643	5342
D:	901.16	-1628	86	15511	-51	29	-22	1532	643	5342
D:	902.12	-1628	86	15511	-87	-6	-26	1532	643	5342
D:	903.01	-1628	86	15511	-87	-6	-26	1535	594	5533
D:	903.90	-1722	173	15908	-87	-6	-26	1535	594	5533
D:	904.80	-1722	173	15908	-87	-6	-26	1535	594	5533
D:	905.70	-1722	173	15908	-87	-104	36	1535	594	5533
D:	906.58	-1722	173	15908	-127	-104	36	1535	594	5533
D:	907.50	-1550	19	15715	-127	-104	36	1535	594	5533
D:	908.54	-1550	19	15715	-127	-104	36	1535	594	5533
D:	909.45	-1550	19	15715	-127	17	-120	1535	594	5533
D:	910.35	-1550	19	15715	18	17	-120	1535	594	5533
D:	911.25	-1550	19	15715	18	17	-120	1535	594	5533
D:	912.14	-1601	62	15608	18	17	-120	1535	594	5533
D:	913.02	-1601	62	15608	18	17	-120	1535	594	5533
D:	913.92	-1601	62	15608	-42	-34	-47	1535	594	5533
D:	914.84	-1601	62	15608	-42	-34	-47	1535	594	5533
D:	915.77	-1660	121	15810	-42	-34	-47	1535	594	5533
D:	916.68	-1660	121	15810	-42	-34	-47	1535	594	5533
D:	917.55	-1660	121	15810	-42	-39	-55	1535	594	5533
D:	918.48	-1660	121	15810	-115	-39	-55	1535	594	5533
D:	919.36	-1713	80	15580	-115	-39	-55	1535	594	5533
D:	920.25	-1713	80	15580	-115	-39	-55	1535	594	5533
D:	921.15	-1713	80	15580	-115	-39	-55	1535	594	5533
D:	922.06	-1713	80	15580	-52	37	-31	1535	594	5533
D:	923.00	-1713	80	15580	-52	37	-31	1515	631	5373
D:	923.89	-1832	17	16088	-52	37	-31	1515	631	5373
D:	924.87	-1832	17	16088	-52	37	-31	1515	631	5373
D:	925.87	-1832	17	16088	-52	20	-68	1515	631	5373
D:	926.88	-1832	17	16088	-52	20	-68	1515	631	5373
D:	927.80	-1582	78	15892	-52	20	-68	1515	631	5373
D:	928.68	-1582	78	15892	-52	20	-68	1515	631	5373
D:	929.57	-1582	78	15892	-52	-58	17	1515	631	5373
D:	930.45	-1582	78	15892	-29	-58	17	1515	631	5373
D:	931.34	-1582	158	15676	-29	-58	17	1515	631	5373
D:	932.21	-1692	158	15676	-29	-58	17	1515	631	5373
D:	933.12	-1692	158	15676	-29	-58	17	1515	631	5373
D:	934.01	-1692	158	15676	-2	-62	15	1515	631	5373
D:	934.91	-1692	158	15676	-2	-62	15	1515	631	5373
D:	935.83	-1643	124	15844	-2	-62	15	1515	631	5373
D:	936.72	-1643	124	15844	-2	-62	15	1515	631	5373
D:	937.61	-1643	124	15844	-2	16	-39	1515	631	5373
D:	938.56	-1643	124	15844	-60	16	-39	1515	631	5373
D:	939.45	-1633	14	15570	-60	16	-39	1515	631	5373
D:	940.41	-1633	14	15570	-60	16	-39	1515	631	5373
D:	941.44	-1633	14	15570	-60	47	-8	1515	631	5373
D:	942.31	-1633	14	15570	-72	47	-8	1515	631	5373
D:	943.20	-1633	14	15570	-72	47	-8	1531	608	5555
D:	944.12	-1719	82	15627	-72	47	-8	1531	608	5555
D:	945.02	-1719	82	15627	-72	47	-8	1531	608	5555
D:	945.90	-1719	82	15627	-31	65	-108	1531	608	5555
D:	946.80	-1719	82	15627	-31	65	-108	1531	608	5555
D:	947.69	-1715	137	15843	-31	65	-108	1531	608	5555
D:	948.57	-1715	137	15843	-31	65	-108	1531	608	5555
D:	949.43	-1715	137	15843	-31	67	15	1531	608	5555
D:	950.35	-1715	137	15843	-53	67	15	1531	608	5555
D:	951.35	-1666	18	15702	-53	67	15	1531	608	5555
D:	952.27	-1666	18	15702	-53	67	15	1531	608	5555
D:	953.15	-1666	18	15702	-53	67	15	1531	608	5555
D:	954.12	-1666	18	15702	-110	-24	-106	1531	608	5555
D:	955.06	-1666	18	15702	-110	-24	-106	1531	608	5555
D:	956.00	-1665	116	15860	-110	-24	-106	1531	608	5555
D:	956.90	-1665	116	15860	-110	-24	-106	1531	608	5555
D:	957.81	-1665	116	15860	-110	15	-65	1531	608	5555
D:	958.69	-1665	116	15860	-57	15	-65	1531	608	5555
D:	959.56	-1599	61	15646	-57	15	-65	1531	608	5555
D:	960.45	-1599	61	15646	-57	15	-65	1531	608	5555
D:	961.35	-1599	61	15646	-57	15	-65	1531	608	5555
D:	962.25	-1599	61	15646	21	21	-55	1531	608	5555
D:	963.14	-1599	61	15646	21	21	-55	1520	653	5303
D:	964.06	-1696	36	15720	21	21	-55	1520	653	5303
D:	965.00	-1696	36	15720	21	21	-55	1520	653	5303
D:	965.90	-1696	36	15720	2	54	-63	1520	653	5303
D:	966.77	-1696	36	15720	2	54	-63	1520	653	5303
D:	967.74	-1685	23	15885	2	54	-63	1520	653	5303
D:	968.85	-1685	23	15885	2	54	-63	1520	653	5303
D:	969.78	-1685	23	15885	-254	37	-5	1520	653	5303
D:	970.67	-1685	23	15885	-6	37	-5	1520	653	5303
D:	971.57	-1625	34	15694	-6	37	-5	1520	653	5303
D:	972.45	-1625	34	15694	-6	37	-5	1520	653	5303
D:	973.34	-1625	34	15694	-6	37	-5	1520	653	5303
D:	974.29	-1625	34	15694	34	64	-40	1520	653	5303
D:	975.17	-1625	34	15694	34	64	-40	1520	653	5303
D:	976.12	-1723	134	15758	34	64	-40	1520	653	5303
D:	977.02	-1723	134	15758	34	64	-40	1520	653	5303
D:	977.91	-1723	134	15758	-4	43	-72	1520	653	5303
D:	978.80	-1723	134	15758	-4	43	-72	1520	653	5303
D:	979.68	-1606	96	15757	-4	43	-72	1520	653	5303
D:	980.57	-1606	96	15757	-4	43	-72	1520	653	5303
D:	981.47	-1606	96	15757	-4	18	9	1520	653	5303
D:	982.35	-1606	96	15757	-30	18	9	1520	653	5495
D:	983.25	-1606	96	15757	-30	18	9	1510	622	5495
D:	984.17	-1615	40	15470	-30	18	9	1510	622	5495
D:	985.12	-1615	40	15470	-30	18	9	1510	622	5495
D:	986.01	-1615	40	15470	-83	70	-29	1510	622	5495
D:	986.90	-1615	40	15470	-83	70	-29	1510	622	5495
D:	987.80	-1637	110	15854	-83	70	-29	1510	622	5495
D:	988.77	-1637	110	15854	-83	70	-29	1510	622	5495
D:	989.72	-1637	110	15854	-83	-1	-37	1510	622	5495
D:	990.62	-1637	110	15854	-26	-1	-37	1510	622	5495
D:	991.62	-1602	18	15636	-26	-1	-37	1510	622	5495
D:	992.67	-1602	18	15636	-26	-1	-37	1510	622	5495
D:	993.70	-1602	18	15636	-26	-13	-62	1510	622	5495
D:	994.68	-1602	18	15636	-73	-13	-62	1510	622	5495
D:	995.58	-1674	159	16020	-73	-13	-62	1510	622	5495
D:	996.47	-1674	159	16020	-73	-13	-62	1510	622	5495
D:	997.34	-1674	159	16020	-73	-13	-62	1510	622	5495
D:	998.24	-1674	159	16020	17	61	-19	1510	622	5495
D:	999.11	-1674	159	16020	17	61	-19	1510	622	5495
D:	1000.13	-1686	70	15733	17	61	-19	1510	622	5495
D:	1001.00	-1686	70	15733	17	61	-19	1510	622	5495
D:	1001.91	-1686	70	15733	-74	10	-74	1510	622	5495
D:	1002.79	-1686	70	15733	-74	10	-74	1510	622	5621
D:	1003.70	-1619	54	15694	-74	10	-74	1510	622	5621
D:	1004.58	-1619	54	15694	-74	10	-74	1510	622	5621
D:	1005.47	-1619	54	15694	-74	45	6	1510	622	5621
D:	1006.37	-1619	54	15694	46	45	6	1510	622	5621
D:	1007.27	-1619	54	15694	46	45	6	1522	655	5621
D:	1008.15	-1736	150	15892	46	45	6	1522	655	5621
D:	1009.06	-1736	150	15892	46	45	6	1522	655	5621
D:	1010.00	-1736	150	15892	0	59	-9	1522	655	5621
D:	1011.01	-1736	150	15892	0	59	-9	1522	655	5621
D:	1012.00	-1614	11	15843	0	59	-9	1522	655	5621
D:	1012.90	-1614	11	15843	0	59	-9	1522	655	5621
D:	1013.80	-1614	11	15843	0	17	-15	1522	655	5621
D:	1014.70	-1614	11	15843	30	17	-15	1522	655	5621
D:	1015.57	-1626	28	15849	30	17	-15	1522	655	5621
D:	1016.46	-1626	28	15849	30	17	-15	1522	655	5621
D:	1017.31	-1626	28	15849	30	17	-15	1522	655	5621
D:	1018.21	-1626	28	15849	46	-39	12	1522	655	5621
D:	1019.12	-1626	28	15849	46	-39	12	1522	655	5621
D:	1020.02	-1709	61	15790	46	-39	12	1522	655	5621
D:	1020.92	-1709	61	15790	46	-39	12	1522	655	5621
D:	1021.83	-1709	61	15790	46	66	-57	1522	655	5621
D:	1022.72	-1709	61	15790	43	66	-57	1522	655	5621
D:	1023.61	-1544	13	15799	43	66	-57	1522	655	5621
D:	1024.50	-1544	13	15799	43	66	-57	1522	655	5621
D:	1025.45	-1544	13	15799	43	106	-16	1522	655	5621
D:	1026.34	-1544	13	15799	-59	106	-16	1522	655	5467
D:	1027.26	-1544	13	15799	-59	106	-16	1509	635	5467
D:	1028.17	-1668	30	15957	-59	106	-16	1509	635	5467
D:	1029.12	-1668	30	15957	-59	106	-16	1509	635	5467
D:	1030.06	-1668	30	15957	69	-248	31	1509	635	5467
D:	1031.00	-1668	30	15957	69	-248	31	1509	635	5467
D:	1031.89	-1600	140	15799	69	-248	31	1509	635	5467
D:	1032.78	-1600	140	15799	69	-248	31	1509	635	5467
D:	1033.65	-1600	140	15799	69	5	-37	1509	635	5467
D:	1034.60	-1600	140	15799	42	5	-37	1509	635	5467
D:	1035.59	-1574	146	15560	42	5	-37	1509	635	5467
D:	1036.46	-1574	146	15560	42	5	-37	1509	635	5467
D:	1037.33	-1574	146	15560	42	5	-37	1509	635	5467
D:	1038.22	-1574	146	15560	113	10	-63	1509	635	5467
D:	1039.10	-1574	146	15560	113	10	-63	1509	635	5467
D:	1040.00	-1609	107	15878	113	10	-63	1509	635	5467
D:	1040.87	-1609	107	15878	113	10	-63	1509	635	5467
D:	1041.71	-1609	107	15878	113	38	-72	1509	635	5467
D:	1042.63	-1609	107	15878	60	38	-72	1509	635	5467
D:	1043.57	-1581	108	15665	60	38	-72	1509	635	5467
D:	1044.46	-1581	108	15665	60	38	-72	1509	635	5467
D:	1045.36	-1581	108	15665	60	38	-72	1509	635	5467
D:	1046.24	-1581	108	15665	18	79	-84	1509	635	5467
D:	1047.14	-1581	108	15665	18	79	-84	1515	616	5289
D:	1048.05	-1744	81	15894	18	79	-84	1515	616	5289
D:	1049.04	-1744	81	15894	18	79	-84	1515	616	5289
D:	1050.09	-1744	81	15894	-11	38	-49	1515	616	5289
D:	1051.01	-1744	81	15894	-11	38	-49	1515	616	5289
D:	1051.90	-1702	106	15877	-11	38	-49	1515	616	5289
D:	1052.87	-1702	106	15877	-11	38	-49	1515	616	5289
D:	1053.85	-1702	106	15877	-21	76	-47	1515	616	5289
D:	1054.73	-1702	106	15877	-21	76	-47	1515	616	5289
D:	1055.65	-1560	80	15523	-21	76	-47	1515	616	5289
D:	1056.56	-1560	80	15523	-21	76	-47	1515	616	5289
D:	1057.46	-1560	80	15523	-21	29	-10	1515	616	5289
D:	1058.50	-1560	80	15523	74	29	-10	1515	616	5289
D:	1059.47	-1568	89	15694	74	29	-10	1515	616	5289
D:	1060.38	-1568	89	15694	74	29	-10	1515	616	5289
D:	1061.26	-1568	89	15694	74	29	-10	1515	616	5289
D:	1062.15	-1568	89	15694	-31	47	-20	1515	616	5289
D:	1063.12	-1568	89	15694	-31	47	-20	1515	616	5289
D:	1064.01	-1623	113	15790	-31	47	-20	1515	616	5289
D:	1064.91	-1623	113	15790	-31	47	-20	1515	616	5289
D:	1065.79	-1623	113	15790	-31	64	-44	1515	616	5289
D:	1066.73	-1623	113	15790	-29	64	-44	1508	630	5565
D:	1067.75	-1588	69	15776	-29	64	-44	1508	630	5565
D:	1068.68	-1588	69	15776	-29	64	-44	1508	630	5565
D:	1069.68	-1588	69	15776	-29	20	27	1508	630	5565
D:	1070.57	-1588	69	15776	17	20	27	1508	630	5565
D:	1071.43	-1713	42	15617	17	20	27	1508	630	5565
D:	1072.32	-1713	42	15617	17	20	27	1508	630	5565
D:	1073.22	-1713	42	15617	17	20	27	1508	630	5565
D:	1074.12	-1713	42	15617	-12	147	-25	1508	630	5565
D:	1075.17	-1713	42	15617	-12	147	-25	1508	630	5565
D:	1076.11	-1567	76	15786	-12	147	-25	1508	630	5565
D:	1077.01	-1567	76	15786	-12	147	-25	1508	630	5565
D:	1077.89	-1567	76	15786	-28	43	-63	1508	630	5565
D:	1078.76	-1567	76	15786	-28	43	-63	1508	630	5565
D:	1079.62	-1634	70	15824	-28	43	-63	1508	630	5565
D:	1080.56	-1634	70	15824	-28	43	-63	1508	630	5565
D:	1081.47	-1634	70	15824	-28	154	-55	1508	630	5565
D:	1082.38	-1634	70	15824	-4	154	-55	1508	630	5565
D:	1083.27	-1634	70	15824	-4	154	-55	1508	630	5565
D:	1084.17	-1698	108	15846	-4	154	-55	1508	630	5565
D:	1085.11	-1698	108	15846	-4	154	-55	1508	630	5565
D:	1086.01	-1698	108	15846	69	67	-129	1508	630	5565
D:	1086.90	-1698	108	15846	69	67	-129	1519	653	5492
D:	1087.80	-1595	-207	15644	69	67	-129	1519	653	5492
D:	1088.78	-1595	-207	15644	69	67	-129	1519	653	5492
D:	1089.79	-1595	-207	15644	-187	94	-88	1519	653	5492
D:	1090.67	-1595	-207	15644	-25	94	-88	1519	653	5492
D:	1091.54	-1543	87	15573	-25	94	-88	1519	653	5492
D:	1092.45	-1543	87	15573	-25	94	-88	1519	653	5492
D:	1093.35	-1543	87	15573	-25	94	-88	1519	653	5492
D:	1094.23	-1543	87	15573	8	214	8	1519	653	5492
D:	1095.22	-1543	87	15573	8	214	8	1519	653	5492
D:	1096.14	-1646	92	15894	8	214	8	1519	653	5492
D:	1097.06	-1646	92	15894	8	214	8	1519	653	5492
D:	1098.00	-1646	92	15894	-37	97	-10	1519	653	5492
D:	1098.88	-1646	92	15894	-37	97	-10	1519	653	5492
D:	1099.78	-1703	35	15522	-37	97	-10	1519	653	5492
D:	1100.66	-1703	35	15522	-37	97	-10	1519	653	5492
D:	1101.59	-1703	35	15522	-37	59	9	1519	653	5492
D:	1102.48	-1703	35	15522	60	59	9	1519	653	5492
D:	1103.36	-1648	103	15759	60	59	9	1519	653	5492
D:	1104.23	-1648	103	15759	60	59	9	1519	653	5492
D:	1105.10	-1648	103	15759	60	59	9	1519	653	5492
D:	1106.00	-1648	103	15759	85	5	-38	1519	653	5492
D:	1106.89	-1648	103	15759	85	5	-38	1501	630	5498
D:	1107.80	-1653	76	15835	85	5	-38	1501	630	5498
D:	1108.81	-1653	76	15835	85	5	-38	1501	630	5498
D:	1109.79	-1653	76	15835	85	22	-95	1501	630	5498
D:	1110.70	-1653	76	15835	44	22	-95	1501	630	5498
D:	1111.57	-1603	34	15921	44	22	-95	1501	630	5498
D:	1112.45	-1603	34	15921	44	22	-95	1501	630	5498
D:	1113.35	-1603	34	15921	44	22	-95	1501	630	5498
D:	1114.24	-1603	34	15921	-14	103	-124	1501	630	5498
D:	1115.15	-1603	34	15921	-14	103	-124	1501	630	5498
D:	1116.12	-1697	85	15949	-14	103	-124	1501	630	5498
D:	1117.06	-1697	85	15949	-14	103	-124	1501	630	5498
D:	1118.00	-1697	85	15949	-1	77	-103	1501	630	5498
D:	1118.90	-1697	85	15949	-1	77	-103	1501	630	5498
D:	1119.79	-1644	76	15789	-1	77	-103	1501	630	5498
D:	1120.68	-1644	76	15789	-1	77	-103	1501	630	5498
D:	1121.56	-1644	76	15789	-1	140	-62	1501	630	5498
D:	1122.49	-1644	76	15789	18	140	-62	1501	630	5498
D:	1123.40	-1738	42	15917	18	140	-62	1501	630	5498
D:	1124.35	-1738	42	15917	18	140	-62	1501	630	5498
D:	1125.24	-1738	42	15917	18	140	-62	1501	630	5498
D:	1126.12	-1738	42	15917	27	173	-34	1501	630	5498
D:	1127.06	-1738	42	15917	27	173	-34	1531	643	5648
D:	1128.00	-1657	0	15812	27	173	-34	1531	643	5648
D:	1128.88	-1657	0	15812	27	173	-34	1531	643	5648
D:	1129.77	-1657	0	15812	-229	185	-34	1531	643	5648
D:	1130.67	-1657	0	15812	-1	185	-34	1531	643	5648
D:	1131.53	-1698	167	15890	-1	185	-34	1531	643	5648
D:	1132.45	-1698	167	15890	-1	185	-34	1531	643	5648
D:	1133.34	-1698	167	15890	-1	185	-34	1531	643	5648
D:	1134.24	-1698	167	15890	0	101	-123	1531	643	5648
D:	1135.15	-1698	167	15890	0	101	-123	1531	643	5648
D:	1136.12	-1690	45	15917	0	101	-123	1531	643	5648
D:	1136.99	-1690	45	15917	0	101	-123	1531	643	5648
D:	1137.91	-1690	45	15917	44	73	-57	1531	643	5648
D:	1138.85	-1690	45	15917	44	73	-57	1531	643	5648
D:	1139.75	-1669	90	15640	44	73	-57	1531	643	5648
D:	1140.62	-1669	90	15640	44	73	-57	1531	643	5648
D:	1141.56	-1669	90	15640	44	112	-46	1531	643	5648
D:	1142.46	-1669	90	15640	49	112	-46	1531	643	5648
D:	1143.33	-1669	9	15626	49	112	-46	1531	643	5648
D:	1144.22	-1805	9	15626	49	112	-46	1531	643	5648
D:	1145.12	-1805	9	15626	49	112	-46	1531	643	5648
D:	1146.06	-1805	9	15626	-23	100	-94	1531	643	5648
D:	1147.00	-1805	9	15626	-23	100	-94	1511	620	5533
D:	1147.89	-1543	5	15808	-23	100	-94	1511	620	5533
D:	1148.78	-1543	5	15808	-23	100	-94	1511	620	5533
D:	1149.67	-1543	5	15808	-23	37	-38	1511	620	5533
D:	1150.55	-1543	5	15808	-74	37	-38	1511	620	5533
D:	1151.44	-1570	74	15594	-74	37	-38	1511	620	5533
D:	1152.34	-1570	74	15594	-74	37	-38	1511	620	5533
D:	1153.24	-1570	74	15594	-74	37	-38	1511	620	5533
D:	1154.14	-1570	74	15594	-56	83	-47	1511	620	5533
D:	1155.12	-1570	74	15594	-56	83	-47	1511	620	5533
D:	1156.18	-1726	87	15881	-56	83	-47	1511	620	5533
D:	1157.13	-1726	87	15881	-56	83	-47	1511	620	5533
D:	1158.06	-1726	87	15881	-49	105	-63	1511	620	5533
D:	1159.00	-1726	87	15881	-49	105	-63	1511	620	5533
D:	1159.89	-1698	3	15842	-49	105	-63	1511	620	5533
D:	1160.80	-1698	3	15842	-49	105	-63	1511	620	5533
D:	1161.70	-1698	3	15842	-49	121	-107	1511	620	5533
D:	1162.59	-1698	3	15842	-15	121	-107	1511	620	5533
D:	1163.52	-1690	143	15844	-15	121	-107	1511	620	5533
D:	1164.45	-1690	143	15844	-15	121	-107	1511	620	5533
D:	1165.33	-1690	143	15844	-15	121	-107	1511	620	5533
D:	1166.21	-1690	143	15844	17	113	-29	1511	620	5533
D:	1167.12	-1690	143	15844	17	113	-29	1511	620	5541
D:	1167.99	-1686	21	15932	17	113	-29	1511	620	5541
D:	1168.88	-1686	21	15932	17	113	-29	1511	620	5541
D:	1169.77	-1686	21	15932	-239	162	-111	1511	620	5541
D:	1170.64	-1686	21	15932	-46	162	-111	1517	636	5541
D:	1171.58	-1633	100	15685	-46	162	-111	1517	636	5541
D:	1172.46	-1633	100	15685	-46	162	-111	1517	636	5541
D:	1173.34	-1633	100	15685	-46	162	-111	1517	636	5541
D:	1174.25	-1633	100	15685	204	75	-83	1517	636	5541
D:	1175.27	-1633	154	15886	204	75	-83	1517	636	5541
D:	1176.24	-1686	154	15886	204	75	-83	1517	636	5541
D:	1177.14	-1686	154	15886	204	75	-83	1517	636	5541
D:	1178.05	-1686	154	15886	22	89	-33	1517	636	5541
D:	1178.99	-1686	154	15886	22	89	-33	1517	636	5541
D:	1179.90	-1602	92	15742	22	89	-33	1517	636	5541
D:	1180.80	-1602	92	15742	22	89	-33	1517	636	5541
D:	1181.68	-1602	92	15742	22	57	-88	1517	636	5541
D:	1182.55	-1602	92	15742	-27	57	-88	1517	636	5541
D:	1183.53	-1549	30	15642	-27	57	-88	1517	636	5541
D:	1184.55	-1549	30	15642	-27	57	-88	1517	636	5541
D:	1185.45	-1549	30	15642	-27	256	-48	1517	636	5541
D:	1186.35	-1549	30	15642	-31	256	-48	1517	636	5541
D:	1187.24	-1549	30	15642	-31	256	-48	1517	636	5541
D:	1188.14	-1717	111	15777	-31	256	-48	1517	636	5541
D:	1189.05	-1717	111	15777	-31	256	-48	1517	636	5541
D:	1189.99	-1717	111	15777	90	87	-89	1517	636	5541
D:	1191.02	-1717	111	15777	90	87	-89	1523	649	5559
D:	1192.07	-1563	36	15569	90	87	-89	1523	649	5559
D:	1193.00	-1563	36	15569	90	87	-89	1523	649	5559
D:	1193.90	-1563	36	15569	48	44	-61	1523	649	5559
D:	1194.77	-1563	36	15569	48	44	-61	1523	649	5559
D:	1195.74	-1721	58	15926	48	44	-61	1523	649	5559
D:	1196.61	-1721	58	15926	48	44	-61	1523	649	5559
D:	1197.56	-1721	58	15926	48	28	-5	1523	649	5559
D:	1198.45	-1721	58	15926	-17	28	-5	1523	649	5559
D:	1199.34	-1721	139	15908	-17	28	-5	1523	649	5559
D:	1200.24	-1591	139	15908	-17	28	-5	1523	649	5559
D:	1201.11	-1591	139	15908	-17	28	-5	1523	649	5559
D:	1201.99	-1591	139	15908	86	93	9	1523	649	5559
D:	1202.89	-1591	139	15908	86	93	9	1523	649	5559
D:	1203.81	-1735	95	15371	86	93	9	1523	649	5559
D:	1204.69	-1735	95	15371	86	93	9	1523	649	5559
D:	1205.57	-1735	95	15371	86	222	-38	1523	649	5559
D:	1206.45	-1735	95	15371	58	222	-38	1523	649	5559
D:	1207.41	-1686	104	15957	58	222	-38	1523	649	5559
D:	1208.35	-1686	104	15957	58	222	-38	1523	649	5559
D:	1209.25	-1686	104	15957	58	222	-38	1523	649	5559
D:	1210.14	-1686	104	15957	-13	137	-14	1523	649	5559
D:	1211.12	-1686	104	15957	-13	137	-14	1516	640	5497
D:	1212.02	-1397	-13	15839	-13	137	-14	1516	640	5497
D:	1212.92	-1397	-13	15839	-13	137	-14	1516	640	5497
D:	1213.84	-1397	-13	15839	-64	128	-6	1516	640	5497
D:	1214.74	-1397	-13	15839	-64	128	-6	1516	640	5497
D:	1215.67	-1601	61	15629	-64	128	-6	1516	640	5497
D:	1216.55	-1601	61	15629	-64	128	-6	1516	640	5497
D:	1217.46	-1601	61	15629	-64	91	-14	1516	640	5497
D:	1218.35	-1601	61	15629	45	91	-14	1516	640	5497
D:	1219.25	-1601	61	15629	45	91	-14	1516	640	5497
D:	1220.14	-1613	50	15877	45	91	-14	1516	640	5497
D:	1221.05	-1613	50	15877	45	91	-14	1516	640	5497
D:	1221.99	-1613	50	15877	94	5	29	1516	640	5497
D:	1222.89	-1613	50	15877	94	5	29	1516	640	5497
D:	1223.77	-1533	40	15595	94	5	29	1516	640	5497
D:	1224.64	-1533	40	15595	94	5	29	1516	640	5497
D:	1225.57	-1533	40	15595	94	107	-51	1516	640	5497
D:	1226.47	-1533	40	15595	-31	107	-51	1516	640	5497
D:	1227.37	-1613	56	15692	-31	107	-51	1516	640	5497
D:	1228.25	-1613	56	15692	-31	107	-51	1516	640	5497
D:	1229.13	-1613	56	15692	-31	107	-51	1516	640	5497
D:	1230.01	-1613	56	15692	19	184	-15	1516	640	5497
D:	1230.90	-1613	56	15692	19	184	-15	1509	649	5505
D:	1231.80	-1677	41	15742	19	184	-15	1509	649	5505
D:	1232.68	-1677	41	15742	19	184	-15	1509	649	5505
D:	1233.55	-1677	41	15742	19	124	-111	1509	649	5505
D:	1234.47	-1677	41	15742	-22	124	-111	1509	649	5505
D:	1235.34	-1677	91	15765	-22	124	-111	1509	649	5505
D:	1236.22	-1732	91	15765	-22	124	-111	1509	649	5505
D:	1237.12	-1732	91	15765	-22	124	-111	1509	649	5505
D:	1238.01	-1732	91	15765	41	93	-9	1509	649	5505
D:	1238.89	-1732	91	15765	41	93	-9	1509	649	5505
D:	1239.78	-1786	-3	15826	41	93	-9	1509	649	5505
D:	1240.71	-1786	-3	15826	41	93	-9	1509	649	5505
D:	1241.75	-1786	-3	15826	41	113	-34	1509	649	5505
D:	1242.68	-1786	-3	15826	23	113	-34	1509	649	5505
D:	1243.57	-1573	87	15851	23	113	-34	1509	649	5505
D:	1244.46	-1573	87	15851	23	113	-34	1509	649	5505
D:	1245.47	-1573	87	15851	23	106	17	1509	649	5505
D:	1246.48	-1573	87	15851	5	106	17	1509	649	5505
D:	1247.37	-1739	36	15774	5	106	17	1509	649	5505
D:	1248.29	-1739	36	15774	5	106	17	1509	649	5505
D:	1249.19	-1739	36	15774	5	106	17	1509	649	5505
D:	1250.11	-1739	36	15774	56	63	-95	1509	649	5505
D:	1251.17	-1739	36	15774	56	63	-95	1526	652	5610
D:	1252.18	-1828	68	15962	56	63	-95	1526	652	5610
D:	1253.12	-1828	68	15962	56	63	-95	1526	652	5610
D:	1254.02	-1828	68	15962	85	84	51	1526	652	5610
D:	1254.90	-1828	68	15962	85	84	51	1526	652	5610
D:	1255.79	-1597	-6	15646	85	84	51	1526	652	5610
D:	1256.69	-1597	-6	15646	85	84	51	1526	652	5610
D:	1257.72	-1597	-6	15646	-171	146	-78	1526	652	5610
D:	1258.71	-1597	-6	15646	-9	146	-78	1526	652	5610
D:	1259.62	-1755	150	15794	-9	146	-78	1526	652	5610
D:	1260.64	-1755	150	15794	-9	146	-78	1526	652	5610
D:	1261.64	-1755	150	15794	-9	115	-65	1526	652	5610
D:	1262.56	-1755	150	15794	75	115	-65	1526	652	5610
D:	1263.54	-1678	84	15789	75	115	-65	1526	652	5610
D:	1264.45	-1678	84	15789	75	115	-65	1526	652	5610
D:	1265.34	-1678	84	15789	75	115	-65	1526	652	5610
D:	1266.26	-1678	84	15789	28	47	-77	1526	652	5610
D:	1267.30	-1717	91	15703	28	47	-77	1526	652	5610
D:	1268.32	-1717	91	15703	28	47	-77	1526	652	5610
D:	1269.31	-1717	91	15703	28	47	-77	1526	652	5610
D:	1270.29	-1717	91	15703	40	158	-37	1526	652	5610
D:	1271.22	-1717	91	15703	40	158	-37	1539	649	5494
D:	1272.22	-1748	166	15892	40	158	-37	1539	649	5494
D:	1273.12	-1748	166	15892	40	158	-37	1539	649	5494
D:	1274.01	-1748	166	15892	46	166	-68	1539	649	5494
D:	1274.92	-1748	166	15892	46	166	-68	1539	649	5494
D:	1275.85	-1636	71	15964	46	166	-68	1539	649	5494
D:	1276.75	-1636	71	15964	46	166	-68	1539	649	5494
D:	1277.63	-1636	71	15964	46	109	-15	1539	649	5494
D:	1278.58	-1636	71	15964	62	109	-15	1539	649	5494
D:	1279.46	-1692	112	15624	62	109	-15	1539	649	5494
D:	1280.36	-1692	112	15624	62	109	-15	1539	649	5494
D:	1281.27	-1692	112	15624	62	109	-15	1539	649	5494
D:	1282.17	-1692	112	15624	-15	176	-39	1539	649	5494
D:	1283.12	-1692	112	15624	-15	176	-39	1539	649	5494
D:	1284.06	-1750	185	15858	-15	176	-39	1539	649	5494
D:	1284.99	-1750	185	15858	-15	176	-39	1539	649	5494
D:	1285.89	-1750	185	15858	38	123	-56	1539	649	5494
D:	1286.78	-1750	185	15858	38	123	-56	1539	649	5494
D:	1287.67	-1641	255	15612	38	123	-56	1539	649	5494
D:	1288.54	-1641	255	15612	38	123	-56	1539	649	5494
D:	1289.45	-1641	255	15612	38	56	-116	1539	649	5494
D:	1290.36	-1641	255	15612	0	56	-116	1539	649	5494
D:	1291.24	-1641	255	15612	0	56	-116	1530	623	5548
D:	1292.14	-1669	106	15830	0	56	-116	1530	623	5548
D:	1293.05	-1669	106	15830	0	56	-116	1530	623	5548
D:	1293.92	-1669	106	15830	59	85	-39	1530	623	5548
D:	1294.83	-1669	106	15830	59	85	-39	1530	623	5548
D:	1295.72	-1604	179	16088	59	85	-39	1530	623	5548
D:	1296.60	-1604	179	16088	59	85	-39	1530	623	5548
D:	1297.59	-1604	179	16088	59	155	-32	1530	623	5548
D:	1298.56	-1604	179	16088	88	155	-32	1530	623	5548
D:	1299.45	-1743	36	15618	88	155	-32	1530	623	5548
D:	1300.35	-1743	36	15618	88	155	-32	1530	623	5548
D:	1301.28	-1743	36	15618	88	155	-32	1530	623	5548
D:	1302.16	-1743	36	15618	-11	68	-67	1530	623	5548
D:	1303.05	-1743	36	15618	-11	68	-67	1530	623	5548
D:	1303.99	-1650	120	15889	-11	68	-67	1530	623	5548
D:	1304.92	-1650	120	15889	-11	68	-67	1530	623	5548
D:	1305.85	-1650	120	15889	19	120	-81	1530	623	5548
D:	1306.75	-1650	120	15889	19	120	-81	1530	623	5548
D:	1307.63	-1469	94	15877	19	120	-81	1530	623	5548
D:	1308.56	-1469	94	15877	19	120	-81	1530	623	5548
D:	1309.46	-1469	94	15877	19	41	49	1530	623	5548
D:	1310.37	-1469	94	15877	66	41	49	1530	623	5502
D:	1311.27	-1469	94	15877	66	41	49	1519	643	5502
D:	1312.17	-1613	74	15784	66	41	49	1519	643	5502
D:	1313.12	-1613	74	15784	66	41	49	1519	643	5502
D:	1314.06	-1613	74	15784	25	107	-106	1519	643	5502
D:	1314.93	-1613	74	15784	25	107	-106	1519	643	5502
D:	1315.84	-1713	105	15678	25	107	-106	1519	643	5502
D:	1316.71	-1713	105	15678	25	107	-106	1519	643	5502
D:	1317.63	-1713	105	15678	25	128	-69	1519	643	5502
D:	1318.72	-1713	105	15678	106	128	-69	1519	643	5502
D:	1319.66	-1618	91	15717	106	128	-69	1519	643	5502
D:	1320.57	-1618	91	15717	106	128	-69	1519	643	5502
D:	1321.47	-1618	91	15717	106	94	-12	1519	643	5502
D:	1322.43	-1618	91	15717	115	94	-12	1519	643	5502
D:	1323.48	-1648	88	15626	115	94	-12	1519	643	5502
D:	1324.40	-1648	88	15626	115	94	-12	1519	643	5502
D:	1325.29	-1648	88	15626	115	94	-12	1519	643	5502
D:	1326.17	-1648	88	15626	97	105	-12	1519	643	5502
D:	1327.11	-1648	88	15626	97	105	-12	1519	643	5502
D:	1328.05	-1658	84	15640	97	105	-12	1519	643	5502
D:	1329.00	-1658	84	15640	97	105	-12	1519	643	5502
D:	1329.88	-1658	84	15640	4	53	-27	1519	643	5502
D:	1330.76	-1658	84	15640	4	53	-27	1519	643	5502
D:	1331.79	-1621	45	15816	4	53	-27	1519	643	5502
D:	1332.84	-1621	45	15816	4	53	-27	1519	643	5502
D:	1333.77	-1621	45	15816	4	23	-53	1519	643	5502
D:	1334.68	-1621	45	15816	11	23	-53	1520	643	5548
D:	1335.57	-1639	133	15955	11	23	-53	1520	643	5548
D:	1336.49	-1639	133	15955	11	23	-53	1520	643	5548
D:	1337.46	-1639	133	15955	11	203	-58	1520	643	5548
D:	1338.33	-1639	133	15955	-35	203	-58	1520	643	5548
D:	1339.20	-1639	133	15955	-35	203	-58	1520	643	5548
D:	1340.12	-1576	6	15698	-35	203	-58	1520	643	5548
D:	1341.18	-1576	6	15698	-35	203	-58	1520	643	5548
D:	1342.15	-1576	6	15698	-3	137	1	1520	643	5548
D:	1343.11	-1576	6	15698	-3	137	1	1520	643	5548
D:	1344.05	-1696	80	15627	-3	137	1	1520	643	5548
D:	1344.99	-1696	80	15627	-3	137	1	1520	643	5548
D:	1345.88	-1696	80	15627	105	84	-16	1520	643	5548
D:	1346.78	-1696	80	15627	105	84	-16	1520	643	5548
D:	1347.67	-1623	103	15784	105	84	-16	1520	643	5548
D:	1348.56	-1623	103	15784	105	84	-16	1520	643	5548
D:	1349.45	-1623	103	15784	105	197	-79	1520	643	5548
D:	1350.33	-1623	103	15784	25	197	-79	1520	643	5548
D:	1351.21	-1623	103	15784	25	197	-79	1520	643	5548
D:	1352.11	-1578	66	15764	25	197	-79	1520	643	5548
D:	1353.06	-1578	66	15764	25	197	-79	1520	643	5548
D:	1354.00	-1578	66	15764	-16	130	-96	1520	643	5548
D:	1354.90	-1578	66	15764	-16	130	-96	1531	640	5480
D:	1355.79	-1756	179	15753	-16	130	-96	1531	640	5480
D:	1356.68	-1756	179	15753	-16	130	-96	1531	640	5480
D:	1357.56	-1756	179	15753	-16	94	-133	1531	640	5480
D:	1358.45	-1756	179	15753	52	94	-133	1531	640	5480
D:	1359.33	-1756	114	15911	52	94	-133	1531	640	5480
D:	1360.21	-1741	114	15911	52	94	-133	1531	640	5480
D:	1361.23	-1741	114	15911	52	94	-133	1531	640	5480
D:	1362.22	-1741	114	15911	-24	41	-46	1531	640	5480
D:	1363.11	-1741	114	15911	-24	41	-46	1531	640	5480
D:	1363.99	-1809	68	15782	-24	41	-46	1531	640	5480
D:	1364.86	-1809	68	15782	-24	41	-46	1531	640	5480
D:	1365.79	-1809	68	15782	232	118	-111	1531	640	5480
D:	1366.66	-1809	68	15782	78	118	-111	1531	640	5480
D:	1367.56	-1706	156	15877	78	118	-111	1531	640	5480
D:	1368.45	-1706	156	15877	78	118	-111	1531	640	5480
D:	1369.34	-1706	156	15877	78	118	-111	1531	640	5480
D:	1370.24	-1706	156	15877	-4	108	-28	1531	640	5480
D:	1371.14	-1706	156	15877	-4	108	-28	1531	640	5480
D:	1372.05	-1568	59	15627	-4	108	-28	1531	640	5480
D:	1372.99	-1568	59	15627	-4	108	-28	1531	640	5480
D:	1373.89	-1568	59	15627	70	76	-68	1531	640	5480
D:	1374.78	-1568	59	15627	70	76	-68	1522	617	5430
D:	1375.70	-1693	164	15886	70	76	-68	1522	617	5430
D:	1376.57	-1693	164	15886	70	76	-68	1522	617	5430
D:	1377.46	-1693	164	15886	70	-20	-81	1522	617	5430
D:	1378.33	-1693	164	15886	47	-20	-81	1522	617	5430
D:	1379.22	-1693	164	15886	47	-20	-81	1522	617	5430
D:	1380.11	-1726	79	15765	47	-20	-81	1522	617	5430
D:	1381.00	-1726	79	15765	47	-20	-81	1522	617	5430
D:	1381.88	-1726	79	15765	-9	106	-40	1522	617	5430
D:	1382.80	-1726	79	15765	-9	106	-40	1522	617	5430
D:	1383.68	-1510	76	15701	-9	106	-40	1522	617	5430
D:	1384.54	-1510	76	15701	-9	106	-40	1522	617	5430
D:	1385.45	-1510	76	15701	-9	-6	-5	1522	617	5430
D:	1386.36	-1510	76	15701	-38	-6	-5	1522	617	5430
D:	1387.29	-1510	76	15701	-38	-6	-5	1522	617	5430
D:	1388.19	-1781	122	16028	-38	-6	-5	1522	617	5430
D:	1389.11	-1781	122	16028	-38	-6	-5	1522	617	5430
D:	1390.00	-1781	122	16028	-8	137	-37	1522	617	5430
D:	1391.04	-1781	122	16028	-8	137	-37	1522	617	5430
D:	1392.07	-1606	76	15730	-8	137	-37	1522	617	5430
D:	1393.00	-1606	76	15730	-8	137	-37	1522	617	5430
D:	1393.89	-1606	76	15730	-33	174	-50	1522	617	5430
D:	1394.79	-1606	76	15730	-33	174	-50	1507	647	5553
D:	1395.69	-1641	122	15847	-33	174	-50	1507	647	5553
D:	1396.59	-1641	122	15847	-33	174	-50	1507	647	5553
D:	1397.51	-1641	122	15847	-33	44	-68	1507	647	5553
D:	1398.45	-1641	122	15847	-79	44	-68	1507	647	5553
D:	1399.33	-1641	146	15829	-79	44	-68	1507	647	5553
D:	1400.26	-1749	146	15829	-79	44	-68	1507	647	5553
D:	1401.30	-1749	146	15829	-79	44	-68	1507	647	5553
D:	1402.25	-1749	146	15829	51	59	-68	1507	647	5553
D:	1403.15	-1749	146	15829	51	59	-68	1507	647	5553
D:	1404.12	-1863	104	15727	51	59	-68	1507	647	5553
D:	1405.02	-1863	104	15727	51	59	-68	1507	647	5553
D:	1405.91	-1863	104	15727	9	16	-37	1507	647	5553
D:	1406.83	-1863	104	15727	9	16	-37	1507	647	5553
D:	1407.82	-1765	89	15703	9	16	-37	1507	647	5553
D:	1408.76	-1765	89	15703	9	16	-37	1507	647	5553
D:	1409.64	-1765	89	15703	9	213	-22	1507	647	5553
D:	1410.59	-1765	89	15703	4	213	-22	1507	647	5553
D:	1411.48	-1590	-29	15785	4	213	-22	1507	647	5553
D:	1412.38	-1590	-29	15785	4	213	-22	1507	647	5553
D:	1413.27	-1590	-29	15785	4	213	-22	1507	647	5553
D:	1414.17	-1590	-29	15785	42	59	-30	1507	647	5553
D:	1415.12	-1590	-29	15785	42	59	-30	1515	643	5642
D:	1416.05	-1671	9	15887	42	59	-30	1515	643	5642
D:	1417.16	-1671	9	15887	42	59	-30	1515	643	5642
D:	1418.12	-1671	9	15887	-22	51	-46	1515	643	5642
D:	1419.05	-1671	9	15887	-22	51	-46	1515	643	5642
D:	1419.99	-1776	126	15920	-22	51	-46	1515	643	5642
D:	1420.89	-1776	126	15920	-22	51	-46	1515	643	5642
D:	1421.79	-1776	126	15920	234	75	22	1515	643	5642
D:	1422.71	-1776	126	15920	43	75	22	1515	643	5642
D:	1423.58	-1699	144	15740	43	75	22	1515	643	5642
D:	1424.44	-1699	144	15740	43	75	22	1515	643	5642
D:	1425.31	-1699	144	15740	43	75	22	1515	643	5642
D:	1426.20	-1699	144	15740	-48	61	45	1515	643	5642
D:	1427.11	-1699	144	15740	-48	61	45	1515	643	5642
D:	1428.01	-1699	84	15778	-48	61	45	1515	643	5642
D:	1428.91	-1699	84	15778	-48	61	45	1515	643	5642
D:	1429.83	-1699	84	15778	6	60	-243	1515	643	5642
D:	1430.74	-1699	84	15778	6	60	-243	1515	643	5642
D:	1431.65	-1633	33	15768	6	60	-243	1515	643	5642
D:	1432.56	-1633	33	15768	6	60	-243	1515	643	5642
D:	1433.46	-1633	33	15768	6	12	7	1515	643	5642
D:	1434.35	-1633	33	15768	75	12	7	1515	643	5642
D:	1435.24	-1633	33	15768	75	12	7	1506	631	5452
D:	1436.13	-1611	57	15711	75	12	7	1506	631	5452
D:	1437.01	-1611	57	15711	75	12	7	1506	631	5452
D:	1437.90	-1611	57	15711	57	-39	-1	1506	631	5452
D:	1438.78	-1611	57	15711	57	-39	-1	1506	631	5452
D:	1439.69	-1690	124	16043	57	-39	-1	1506	631	5452
D:	1440.57	-1690	124	16043	57	-39	-1	1506	631	5452
D:	1441.45	-1690	124	16043	57	-6	-47	1506	631	5452
D:	1442.34	-1690	124	16043	-55	-6	-47	1506	631	5452
D:	1443.24	-1690	124	16043	-55	-6	-47	1506	631	5452
D:	1444.14	-1757	123	15742	-55	-6	-47	1506	631	5452
D:	1445.12	-1757	123	15742	-55	-6	-47	1506	631	5452
D:	1445.99	-1757	123	15742	-71	61	-132	1506	631	5452
D:	1446.89	-1757	123	15742	-71	61	-132	1506	631	5452
D:	1447.80	-1721	76	15853	-71	61	-132	1506	631	5452
D:	1448.72	-1721	76	15853	-71	61	-132	1506	631	5452
D:	1449.62	-1721	76	15853	-71	22	0	1506	631	5452
D:	1450.56	-1721	76	15853	-90	22	0	1506	631	5452
D:	1451.46	-1653	69	15886	-90	22	0	1506	631	5452
D:	1452.33	-1653	69	15886	-90	22	0	1506	631	5452
D:	1453.21	-1653	69	15886	-90	22	0	1506	631	5452
D:	1454.12	-1653	69	15886	-13	76	48	1506	631	5452
D:	1455.05	-1653	69	15886	-13	76	48	1518	607	5407
D:	1455.99	-1557	221	15513	-13	76	48	1518	607	5407
D:	1456.89	-1557	221	15513	-13	76	48	1518	607	5407
D:	1457.81	-1557	221	15513	-13	154	-47	1518	607	5407
D:	1458.72	-1557	221	15513	-79	154	-47	1518	607	5407
D:	1459.62	-1684	-38	15789	-79	154	-47	1518	607	5407
D:	1460.56	-1684	-38	15789	-79	154	-47	1518	607	5407
D:	1461.45	-1684	-38	15789	-79	81	-140	1518	607	5407
D:	1462.34	-1684	-38	15789	75	81	-140	1518	607	5407
D:	1463.21	-1719	127	15713	75	81	-140	1518	607	5407
D:	1464.30	-1719	127	15713	75	81	-140	1518	607	5407
D:	1465.31	-1719	127	15713	75	81	-140	1518	607	5407
D:	1466.21	-1719	127	15713	8	-41	-47	1518	607	5407
D:	1467.10	-1719	127	15713	8	-41	-47	1518	607	5407
D:	1467.99	-1625	100	15644	8	-41	-47	1518	607	5407
D:	1468.89	-1625	100	15644	8	-41	-47	1518	607	5407
D:	1469.77	-1625	100	15644	-248	89	-11	1518	607	5407
D:	1470.65	-1625	100	15644	-63	89	-11	1518	607	5407
D:	1471.56	-1720	111	15862	-63	89	-11	1518	607	5407
D:	1472.45	-1720	111	15862	-63	89	-11	1518	607	5407
D:	1473.39	-1720	111	15862	-63	-2	1	1518	607	5407
D:	1474.41	-1720	111	15862	34	-2	1	1518	658	5486
D:	1475.34	-1720	63	15806	34	-2	1	1518	658	5486
D:	1476.24	-1615	63	15806	34	-2	1	1518	658	5486
D:	1477.14	-1615	63	15806	34	-2	1	1518	658	5486
D:	1478.05	-1615	63	15806	8	-22	63	1518	658	5486
D:	1478.99	-1615	63	15806	8	-22	63	1527	658	5486
D:	1479.88	-1680	88	15518	8	-22	63	1527	658	5486
D:	1480.76	-1680	88	15518	8	-22	63	1527	658	5486
D:	1481.65	-1680	88	15518	8	92	-99	1527	658	5486
D:	1482.57	-1680	88	15518	43	92	-99	1527	658	5486
D:	1483.51	-1646	82	15821	43	92	-99	1527	658	5486
D:	1484.41	-1646	82	15821	43	92	-99	1527	658	5486
D:	1485.32	-1646	82	15821	43	92	-99	1527	658	5486
D:	1486.21	-1646	82	15821	-4	86	-15	1527	658	5486
D:	1487.11	-1646	82	15821	-4	86	-15	1527	658	5486
D:	1488.17	-1698	5	15869	-4	86	-15	1527	658	5486
D:	1489.12	-1698	5	15869	-4	86	-15	1527	658	5486
D:	1490.05	-1698	5	15869	-29	116	3	1527	658	5486
D:	1491.04	-1698	5	15869	-29	116	3	1527	658	5486
D:	1491.99	-1721	216	15959	-29	116	3	1527	658	5486
D:	1492.89	-1721	216	15959	-29	116	3	1527	658	5486
D:	1493.84	-1721	216	15959	-50	32	-75	1527	658	5486
D:	1494.70	-1721	216	15959	-50	32	-75	1527	658	5486
D:	1495.62	-1681	90	15911	-50	32	-75	1527	658	5486
D:	1496.57	-1681	90	15911	-50	32	-75	1527	658	5486
D:	1497.47	-1681	90	15911	-50	93	-11	1527	658	5486
D:	1498.36	-1681	90	15911	-15	93	-11	1527	658	5509
D:	1499.25	-1681	90	15911	-15	93	-11	1516	622	5509
D:	1500.13	-1627	78	15672	-15	93	-11	1516	622	5509
D:	1501.00	-1627	78	15672	-15	93	-11	1516	622	5509
D:	1501.89	-1627	78	15672	65	-28	-52	1516	622	5509
D:	1502.77	-1627	78	15672	65	-28	-52	1516	622	5509
D:	1503.66	-1670	120	15950	65	-28	-52	1516	622	5509
D:	1504.58	-1670	120	15950	65	-28	-52	1516	622	5509
D:	1505.55	-1670	120	15950	65	-62	-89	1516	622	5509
D:	1506.61	-1670	120	15950	3	-62	-89	1516	622	5509
D:	1507.69	-1582	-35	15972	3	-62	-89	1516	622	5509
D:	1508.70	-1582	-35	15972	3	-62	-89	1516	622	5509
D:	1509.59	-1582	-35	15972	3	62	-5	1516	622	5509
D:	1510.57	-1582	-35	15972	-101	62	-5	1516	622	5509
D:	1511.47	-1629	46	15838	-101	62	-5	1516	622	5509
D:	1512.33	-1629	46	15838	-101	62	-5	1516	622	5509
D:	1513.22	-1629	46	15838	-101	62	-5	1516	622	5509
D:	1514.11	-1629	46	15838	-9	237	-113	1516	622	5509
D:	1514.99	-1629	46	15838	-9	237	-113	1516	622	5509
D:	1515.89	-1629	86	16076	-9	237	-113	1516	622	5509
D:	1516.80	-1629	86	16076	-9	237	-113	1516	622	5509
D:	1517.74	-1629	86	16076	-9	125	-40	1516	622	5509
D:	1518.63	-1629	86	16076	-10	125	-40	1507	647	5504
D:	1519.55	-1601	117	15595	-10	125	-40	1507	647	5504
D:	1520.46	-1601	117	15595	-10	125	-40	1507	647	5504
D:	1521.36	-1601	117	15595	-10	125	-40	1507	647	5504
D:	1522.28	-1601	117	15595	-16	101	17	1507	647	5504
D:	1523.34	-1661	68	15988	-16	101	17	1507	647	5504
D:	1524.29	-1661	68	15988	-16	101	17	1507	647	5504
D:	1525.19	-1661	68	15988	-16	101	17	1507	647	5504
D:	1526.12	-1661	68	15988	-19	91	-42	1507	647	5504
D:	1527.06	-1661	68	15988	-19	91	-42	1507	647	5504
D:	1527.99	-1662	94	15815	-19	91	-42	1507	647	5504
D:	1528.90	-1662	94	15815	-19	91	-42	1507	647	5504
D:	1529.79	-1662	94	15815	237	65	18	1507	647	5504
D:	1530.70	-1662	94	15815	95	65	18	1507	647	5504
D:	1531.57	-1585	31	15887	95	65	18	1507	647	5504
D:	1532.46	-1585	31	15887	95	65	18	1507	647	5504
D:	1533.33	-1585	31	15887	95	65	18	1507	647	5504
D:	1534.23	-1585	31	15887	-76	-55	6	1507	647	5504
D:	1535.11	-1585	31	15887	-76	-55	6	1507	647	5504
D:	1536.05	-1628	110	15873	-76	-55	6	1507	647	5504
D:	1536.99	-1628	110	15873	-76	-55	6	1507	647	5504
D:	1537.88	-1628	110	15873	-64	160	-5	1507	647	5504
D:	1538.76	-1628	110	15873	-64	160	-5	1511	621	5506
D:	1539.69	-1551	-3	15906	-64	160	-5	1511	621	5506
D:	1540.65	-1551	-3	15906	-64	160	-5	1511	621	5506
D:	1541.71	-1551	-3	15906	-64	122	-39	1511	621	5506
D:	1542.65	-1551	-3	15906	-49	122	-39	1511	621	5506
D:	1543.59	-1751	89	15821	-49	122	-39	1511	621	5506
D:	1544.46	-1751	89	15821	-49	122	-39	1511	621	5506
D:	1545.36	-1751	89	15821	-49	122	-39	1511	621	5506
D:	1546.32	-1751	89	15821	-15	73	-87	1511	621	5506
D:	1547.31	-1751	97	15858	-15	73	-87	1511	621	5506
D:	1548.22	-1758	97	15858	-15	73	-87	1511	621	5506
D:	1549.11	-1758	97	15858	-15	73	-87	1511	621	5506
D:	1550.00	-1758	97	15858	49	68	-58	1511	621	5506
D:	1550.89	-1758	97	15858	49	68	-58	1511	621	5506
D:	1551.79	-1517	137	15510	49	68	-58	1511	621	5506
D:	1552.68	-1517	137	15510	49	68	-58	1511	621	5506
D:	1553.61	-1517	137	15510	49	28	-23	1511	621	5506
D:	1554.64	-1517	137	15510	-25	28	-23	1511	621	5506
D:	1555.58	-1617	59	15936	-25	28	-23	1511	621	5506
D:	1556.46	-1617	59	15936	-25	28	-23	1511	621	5506
D:	1557.39	-1617	59	15936	-25	69	67	1511	621	5506
D:	1558.38	-1617	59	15936	31	69	67	1515	622	5550
D:	1559.27	-1617	59	15936	31	69	67	1515	622	5550
D:	1560.16	-1555	27	15811	31	69	67	1515	622	5550
D:	1561.13	-1555	27	15811	31	69	67	1515	622	5550
D:	1562.05	-1555	27	15811	-77	89	-1	1515	622	5550
D:	1562.99	-1555	27	15811	-77	89	-1	1515	622	5550
D:	1563.90	-1643	58	15823	-77	89	-1	1515	622	5550
D:	1564.78	-1643	58	15823	-77	89	-1	1515	622	5550
D:	1565.71	-1643	58	15823	-77	94	17	1515	622	5550
D:	1566.60	-1643	58	15823	-53	94	17	1515	622	5550
D:	1567.56	-1623	93	15847	-53	94	17	1515	622	5550
D:	1568.45	-1623	93	15847	-53	94	17	1515	622	5550
D:	1569.34	-1623	93	15847	-53	94	17	1515	622	5550
D:	1570.23	-1623	93	15847	50	1	-34	1515	622	5550
D:	1571.12	-1623	93	15847	50	1	-34	1515	622	5550
D:	1572.05	-1635	45	15619	50	1	-34	1515	622	5550
D:	1572.99	-1635	45	15619	50	1	-34	1515	622	5550
D:	1573.89	-1635	45	15619	-62	169	4	1515	622	5550
D:	1574.87	-1635	45	15619	-62	169	4	1515	622	5550
D:	1575.89	-1693	66	15600	-62	169	4	1515	622	5550
D:	1576.93	-1693	66	15600	-62	169	4	1515	622	5550
D:	1578.01	-1693	66	15600	0	31	-56	1515	622	5550
D:	1578.91	-1693	66	15600	0	31	-56	1509	622	5426
D:	1579.80	-1722	176	15805	0	31	-56	1509	622	5426
D:	1580.69	-1722	176	15805	0	31	-56	1509	622	5426
D:	1581.60	-1722	176	15805	0	58	-77	1509	622	5426
D:	1582.57	-1722	176	15805	-2	58	-77	1509	622	5426
D:	1583.46	-1694	-1	15853	-2	58	-77	1509	622	5426
D:	1584.36	-1694	-1	15853	-2	58	-77	1509	622	5426
D:	1585.23	-1694	-1	15853	-2	58	-77	1509	622	5426
D:	1586.12	-1694	-1	15853	-245	77	-7	1509	622	5426
D:	1587.05	-1694	-1	15853	-245	77	-7	1509	622	5426
D:	1587.93	-1746	205	15888	-245	77	-7	1509	622	5426
D:	1588.82	-1746	205	15888	-245	77	-7	1509	622	5426
D:	1589.72	-1746	205	15888	-245	28	-2	1509	622	5426
D:	1590.68	-1746	205	15888	-51	28	-2	1509	622	5426
D:	1591.72	-1632	42	15699	-51	28	-2	1509	622	5426
D:	1592.61	-1632	42	15699	-51	28	-2	1509	622	5426
D:	1593.56	-1632	42	15699	-51	87	-48	1509	622	5426
D:	1594.66	-1632	42	15699	34	87	-48	1509	622	5426
D:	1595.56	-1673	54	15725	34	87	-48	1509	622	5426
D:	1596.47	-1673	54	15725	34	87	-48	1509	622	5426
D:	1597.37	-1673	54	15725	34	87	-48	1509	622	5426
D:	1598.27	-1673	54	15725	3	78	-64	1509	622	5426
D:	1599.17	-1673	54	15725	3	78	-64	1510	649	5647
D:	1600.12	-1600	46	15926	3	78	-64	1510	649	5647
D:	1601.10	-1600	46	15926	3	78	-64	1510	649	5647
D:	1601.99	-1600	46	15926	70	58	-50	1510	649	5647
D:	1602.88	-1600	46	15926	70	58	-50	1510	649	5647
D:	1603.75	-1532	43	15734	70	58	-50	1510	649	5647
D:	1604.62	-1532	43	15734	70	58	-50	1510	649	5647
D:	1605.60	-1532	43	15734	70	111	-14	1510	649	5647
D:	1606.57	-1532	43	15734	110	111	-14	1510	649	5647
D:	1607.47	-1655	91	15917	110	111	-14	1510	649	5647
D:	1608.35	-1655	91	15917	110	111	-14	1510	649	5647
D:	1609.23	-1655	91	15917	110	111	-14	1510	649	5647
D:	1610.18	-1655	91	15917	-7	-17	-20	1510	649	5647
D:	1611.12	-1655	91	15917	-7	-17	-20	1510	649	5647
D:	1612.05	-1602	87	15549	-7	-17	-20	1510	649	5647
D:	1612.99	-1602	87	15549	-7	-17	-20	1510	649	5647
D:	1613.88	-1602	87	15549	-62	159	-137	1510	649	5647
D:	1614.77	-1602	87	15549	-62	159	-137	1510	649	5647
D:	1615.75	-1617	14	15587	-62	159	-137	1510	649	5647
D:	1616.82	-1617	14	15587	-62	159	-137	1510	649	5647
D:	1617.73	-1617	14	15587	-62	190	-37	1510	649	5647
D:	1618.64	-1617	14	15587	-72	190	-37	1513	607	5605
D:	1619.58	-1755	63	15994	-72	190	-37	1513	607	5605
D:	1620.45	-1755	63	15994	-72	190	-37	1513	607	5605
D:	1621.33	-1755	63	15994	-72	190	-37	1513	607	5605
D:	1622.26	-1755	63	15994	-25	131	-34	1513	607	5605
D:	1623.32	-1654	76	15745	-25	131	-34	1513	607	5605
D:	1624.30	-1654	76	15745	-25	131	-34	1513	607	5605
D:	1625.27	-1654	76	15745	-25	131	-34	1513	607	5605
D:	1626.13	-1654	76	15745	-4	110	-50	1513	607	5605
D:	1627.05	-1654	76	15745	-4	110	-50	1513	607	5605
D:	1628.00	-1737	180	15974	-4	110	-50	1513	607	5605
D:	1628.89	-1737	180	15974	-4	110	-50	1513	607	5605
D:	1629.76	-1737	180	15974	252	183	13	1513	607	5605
D:	1630.67	-1737	180	15974	51	183	13	1513	607	5605
D:	1631.56	-1523	54	15767	51	183	13	1513	607	5605
D:	1632.46	-1523	54	15767	51	183	13	1513	607	5605
D:	1633.34	-1523	54	15767	51	183	13	1513	607	5605
D:	1634.27	-1523	54	15767	-25	70	-61	1513	607	5605
D:	1635.20	-1523	54	15767	-25	70	-61	1513	607	5605
D:	1636.10	-1784	138	15800	-25	70	-61	1513	607	5605
D:	1636.99	-1784	138	15800	-25	70	-61	1513	607	5605
D:	1637.89	-1784	138	15800	-10	153	-60	1513	607	5605
D:	1638.76	-1784	138	15800	-10	153	-60	1513	660	5702
D:	1639.70	-1712	143	15840	-10	153	-60	1513	660	5702
D:	1640.65	-1712	143	15840	-10	153	-60	1513	660	5702
D:	1641.57	-1712	143	15840	-10	-18	44	1513	660	5702
D:	1642.47	-1712	143	15840	23	-18	44	1506	660	5702
D:	1643.36	-1623	161	15784	23	-18	44	1506	660	5702
D:	1644.27	-1623	161	15784	23	-18	44	1506	660	5702
D:	1645.17	-1623	161	15784	23	-18	44	1506	660	5702
D:	1646.10	-1623	161	15784	87	94	27	1506	660	5702
D:	1646.99	-1623	161	15784	87	94	27	1506	660	5702
D:	1647.88	-1688	102	15950	87	94	27	1506	660	5702
D:	1648.77	-1688	102	15950	87	94	27	1506	660	5702
D:	1649.69	-1688	102	15950	87	103	-28	1506	660	5702
D:	1650.58	-1688	102	15950	21	103	-28	1506	660	5702
D:	1651.53	-1636	20	15747	21	103	-28	1506	660	5702
D:	1652.55	-1636	20	15747	21	103	-28	1506	660	5702
D:	1653.48	-1636	20	15747	21	43	-18	1506	660	5702
D:	1654.38	-1636	20	15747	66	43	-18	1506	660	5702
D:	1655.25	-1636	20	15747	66	43	-18	1506	660	5702
D:	1656.13	-1661	243	15629	66	43	-18	1506	660	5702
D:	1657.09	-1661	243	15629	66	43	-18	1506	660	5702
D:	1658.17	-1661	243	15629	166	101	81	1506	660	5702
D:	1659.12	-1661	243	15629	166	101	81	1506	660	5702
D:	1660.12	-1694	65	15991	166	101	81	1506	660	5702
D:	1661.01	-1694	65	15991	166	101	81	1506	660	5702
D:	1662.01	-1694	65	15991	18	-7	-43	1506	660	5702
D:	1663.05	-1694	65	15991	18	-7	-43	1503	591	5545
D:	1663.99	-1506	86	15761	18	-7	-43	1503	591	5545
D:	1664.89	-1506	86	15761	18	-7	-43	1503	591	5545
D:	1665.89	-1506	86	15761	-32	96	-103	1503	591	5545
D:	1666.84	-1506	86	15761	-32	96	-103	1503	591	5545
D:	1667.72	-1731	30	15631	-32	96	-103	1503	591	5545
D:	1668.61	-1731	30	15631	-32	96	-103	1503	591	5545
D:	1669.56	-1731	30	15631	-32	119	-33	1503	591	5545
D:	1670.45	-1731	30	15631	-106	119	-33	1503	591	5545
D:	1671.36	-1528	19	15957	-106	119	-33	1503	591	5545
D:	1672.25	-1528	19	15957	-106	119	-33	1503	591	5545
D:	1673.18	-1528	19	15957	-106	119	-33	1503	591	5545
D:	1674.14	-1528	19	15957	-29	165	-70	1503	591	5545
D:	1675.20	-1528	19	15957	-29	165	-70	1503	591	5545
D:	1676.12	-1595	81	15484	-29	165	-70	1503	591	5545
D:	1677.05	-1595	81	15484	-29	165	-70	1503	591	5545
D:	1677.99	-1595	81	15484	-6	147	-71	1503	591	5545
D:	1678.88	-1595	81	15484	-6	147	-71	1503	591	5545
D:	1679.76	-1661	108	15816	-6	147	-71	1503	591	5545
D:	1680.65	-1661	108	15816	-6	147	-71	1503	591	5545
D:	1681.62	-1661	108	15816	-6	116	-82	1503	591	5545
D:	1682.56	-1661	108	15816	73	116	-82	1507	634	5619
D:	1683.47	-1637	76	15607	73	116	-82	1507	634	5619
D:	1684.38	-1637	76	15607	73	116	-82	1507	634	5619
D:	1685.27	-1637	76	15607	73	116	-82	1507	634	5619
D:	1686.15	-1637	76	15607	83	-30	-16	1507	634	5619
D:	1687.11	-1637	76	15607	83	-30	-16	1507	634	5619
D:	1687.99	-1660	10	15836	83	-30	-16	1507	634	5619
D:	1688.88	-1660	10	15836	83	-30	-16	1507	634	5619
D:	1689.75	-1660	10	15836	-173	123	-3	1507	634	5619
D:	1690.79	-1660	10	15836	-10	123	-3	1507	634	5619
D:	1691.70	-1762	99	16033	-10	123	-3	1507	634	5619
D:	1692.59	-1762	99	16033	-10	123	-3	1507	634	5619
D:	1693.55	-1762	99	16033	-10	157	-27	1507	634	5619
D:	1694.45	-1762	99	16033	-7	157	-27	1507	634	5619
D:	1695.46	-1668	100	15509	-7	157	-27	1507	634	5619
D:	1696.48	-1668	100	15509	-7	157	-27	1507	634	5619
D:	1697.40	-1668	100	15509	-7	139	-37	1507	634	5619
D:	1698.31	-1668	100	15509	-102	139	-37	1507	634	5619
D:	1699.20	-1668	100	15509	-102	139	-37	1507	634	5619
D:	1700.15	-1659	79	15787	-102	139	-37	1507	634	5619
D:	1701.14	-1659	79	15787	-102	139	-37	1507	634	5619
D:	1702.10	-1659	79	15787	29	31	-44	1507	634	5619
D:	1703.00	-1659	79	15787	29	31	-44	1498	609	5563
D:	1703.88	-1610	84	15886	29	31	-44	1498	609	5563
D:	1704.76	-1610	84	15886	29	31	-44	1498	609	5563
D:	1705.66	-1610	84	15886	29	185	-98	1498	609	5563
D:	1706.69	-1610	84	15886	65	185	-98	1498	609	5563
D:	1707.61	-1706	31	15373	65	185	-98	1498	609	5563
D:	1708.58	-1706	31	15373	65	185	-98	1498	609	5563
D:	1709.47	-1706	31	15373	65	55	-53	1498	609	5563
D:	1710.36	-1706	31	15373	40	55	-53	1498	609	5563
D:	1711.26	-1706	31	15373	40	55	-53	1498	609	5563
D:	1712.17	-1738	78	15994	40	55	-53	1498	609	5563
D:	1713.19	-1738	78	15994	40	55	-53	1498	609	5563
D:	1714.17	-1738	78	15994	69	0	-39	1498	609	5563
D:	1715.13	-1738	78	15994	69	0	-39	1498	609	5563
D:	1716.05	-1748	71	15748	69	0	-39	1498	609	5563
D:	1716.99	-1748	71	15748	69	0	-39	1498	609	5563
D:	1717.87	-1748	71	15748	68	87	28	1498	609	5563
D:	1718.77	-1748	71	15748	68	87	28	1498	609	5563
D:	1719.66	-1710	101	15766	68	87	28	1498	609	5563
D:	1720.54	-1710	101	15766	68	87	28	1498	609	5563
D:	1721.47	-1710	101	15766	68	29	-25	1498	609	5563
D:	1722.36	-1710	101	15766	-81	29	-25	1498	609	5742
D:	1723.28	-1710	101	15766	-81	29	-25	1512	647	5742
D:	1724.19	-1734	80	15729	-81	29	-25	1512	647	5742
D:	1725.12	-1734	80	15729	-81	29	-25	1512	647	5742
D:	1726.05	-1734	80	15729	49	66	15	1512	647	5742
D:	1726.99	-1734	80	15729	49	66	15	1512	647	5742
D:	1727.89	-1543	164	15513	49	66	15	1512	647	5742
D:	1728.79	-1543	164	15513	49	66	15	1512	647	5742
D:	1729.76	-1543	164	15513	-207	128	1	1512	647	5742
D:	1730.66	-1543	164	15513	-41	128	1	1512	647	5742
D:	1731.54	-1778	40	16068	-41	128	1	1512	647	5742
D:	1732.45	-1778	40	16068	-41	128	1	1512	647	5742
D:	1733.34	-1778	40	16068	-41	128	1	1512	647	5742
D:	1734.23	-1778	40	16068	29	63	-47	1512	647	5742
D:	1735.12	-1778	40	16068	29	63	-47	1512	647	5742
D:	1736.02	-1488	136	15934	29	63	-47	1512	647	5742
D:	1736.91	-1488	136	15934	29	63	-47	1512	647	5742
D:	1737.83	-1488	136	15934	36	1	2	1512	647	5742
D:	1738.73	-1488	136	15934	36	1	2	1512	647	5742
D:	1739.60	-1701	45	15784	36	1	2	1512	647	5742
D:	1740.56	-1701	45	15784	36	1	2	1512	647	5742
D:	1741.46	-1701	45	15784	36	26	-76	1512	647	5742
D:	1742.34	-1701	45	15784	38	26	-76	1512	647	5742
D:	1743.25	-1701	45	15784	38	26	-76	1498	613	5453
D:	1744.14	-1689	135	16024	38	26	-76	1498	613	5453
D:	1745.08	-1689	135	16024	38	26	-76	1498	613	5453
D:	1746.01	-1689	135	16024	28	36	-46	1498	613	5453
D:	1746.99	-1689	135	16024	28	36	-46	1498	613	5453
D:	1747.88	-1791	110	15658	28	36	-46	1498	613	5453
D:	1748.77	-1791	110	15658	28	36	-46	1498	613	5453
D:	1749.66	-1791	110	15658	28	125	-28	1498	613	5453
D:	1750.54	-1791	110	15658	0	125	-28	1498	613	5453
D:	1751.45	-1717	159	15980	0	125	-28	1498	613	5453
D:	1752.34	-1717	159	15980	0	125	-28	1498	613	5453
D:	1753.24	-1717	159	15980	0	125	-28	1498	613	5453
D:	1754.13	-1717	159	15980	28	126	-48	1498	613	5453
D:	1755.00	-1717	159	15980	28	126	-48	1498	613	5453
D:	1755.90	-1804	176	15763	28	126	-48	1498	613	5453
D:	1756.85	-1804	176	15763	28	126	-48	1498	613	5453
D:	1757.73	-1804	176	15763	28	113	2	1498	613	5453
D:	1758.63	-1804	176	15763	14	113	2	1498	613	5453
D:	1759.56	-1717	92	15738	14	113	2	1498	613	5453
D:	1760.47	-1717	92	15738	14	113	2	1498	613	5453
D:	1761.36	-1717	92	15738	14	113	2	1498	613	5453
D:	1762.25	-1717	92	15738	29	184	-41	1498	613	5453
D:	1763.17	-1717	92	15738	29	184	-41	1518	637	5700
D:	1764.12	-1734	235	15936	29	184	-41	1518	637	5700
D:	1765.01	-1734	235	15936	29	184	-41	1518	637	5700
D:	1765.91	-1734	235	15936	1	-62	3	1518	637	5700
D:	1766.84	-1734	235	15936	1	-62	3	1518	637	5700
D:	1767.78	-1681	-8	15755	1	-62	3	1518	637	5700
D:	1768.83	-1681	-8	15755	1	-62	3	1518	637	5700
D:	1769.73	-1681	-8	15755	-255	56	-75	1518	637	5700
D:	1770.74	-1681	-8	15755	-4	56	-75	1518	637	5700
D:	1771.73	-1731	78	15881	-4	56	-75	1518	637	5700
D:	1772.65	-1731	78	15881	-4	56	-75	1518	637	5700
D:	1773.59	-1731	78	15881	-4	91	-241	1518	637	5700
D:	1774.60	-1731	78	15881	6	91	-241	1518	637	5700
D:	1775.55	-1672	64	15835	6	91	-241	1518	637	5700
D:	1776.45	-1672	64	15835	6	91	-241	1518	637	5700
D:	1777.34	-1672	64	15835	6	91	-241	1518	637	5700
D:	1778.22	-1672	64	15835	46	45	37	1518	637	5700
D:	1779.11	-1672	64	15835	46	45	37	1518	637	5700
D:	1780.03	-1642	72	15718	46	45	37	1518	637	5700
D:	1780.93	-1642	72	15718	46	45	37	1518	637	5700
D:	1781.83	-1642	72	15718	-44	13	-66	1518	637	5700
D:	1782.72	-1642	72	15718	-44	13	-66	1504	604	5525
D:	1783.61	-1749	151	16018	-44	13	-66	1504	604	5525
D:	1784.66	-1749	151	16018	-44	13	-66	1504	604	5525
D:	1785.64	-1749	151	16018	-44	40	-46	1504	604	5525
D:	1786.57	-1749	151	16018	-26	40	-46	1504	604	5525
D:	1787.47	-1732	46	15715	-26	40	-46	1504	604	5525
D:	1788.42	-1732	46	15715	-26	40	-46	1504	604	5525
D:	1789.31	-1732	46	15715	-26	40	-46	1504	604	5525
D:	1790.21	-1732	46	15715	31	109	-26	1504	604	5525
D:	1791.12	-1732	46	15715	31	109	-26	1504	604	5525
D:	1792.01	-1758	104	15932	31	109	-26	1504	604	5525
D:	1792.90	-1758	104	15932	31	109	-26	1504	604	5525
D:	1793.79	-1758	104	15932	31	113	-16	1504	604	5525
D:	1794.69	-1758	104	15932	53	113	-16	1504	604	5525
D:	1795.57	-1685	58	15993	53	113	-16	1504	604	5525
D:	1796.47	-1685	58	15993	53	113	-16	1504	604	5525
D:	1797.37	-1685	58	15993	53	113	-16	1504	604	5525
D:	1798.26	-1685	58	15993	9	118	-19	1504	604	5525
D:	1799.15	-1685	58	15993	9	118	-19	1504	604	5525
D:	1800.06	-1553	16	15562	9	118	-19	1504	604	5525
D:	1801.01	-1553	16	15562	9	118	-19	1504	604	5525
D:	1801.99	-1553	16	15562	-48	110	-23	1504	604	5525
D:	1802.89	-1553	16	15562	-48	110	-23	1504	604	5535
D:	1803.78	-1664	60	15774	-48	110	-23	1504	604	5535
D:	1804.65	-1664	60	15774	-48	110	-23	1504	604	5535
D:	1805.55	-1664	60	15774	-48	81	-96	1504	604	5535
D:	1806.49	-1664	60	15774	11	81	-96	1512	656	5535
D:	1807.41	-1655	116	15740	11	81	-96	1512	656	5535
D:	1808.28	-1655	116	15740	11	81	-96	1512	656	5535
D:	1809.19	-1655	116	15740	11	81	-96	1512	656	5535
D:	1810.16	-1655	116	15740	3	122	-89	1512	656	5535
D:	1811.10	-1655	116	15740	3	122	-89	1512	656	5535
D:	1811.99	-1526	134	15772	3	122	-89	1512	656	5535
D:	1812.89	-1526	134	15772	3	122	-89	1512	656	5535
D:	1813.79	-1526	134	15772	3	73	-131	1512	656	5535
D:	1814.69	-1526	134	15772	36	73	-131	1512	656	5535
D:	1815.59	-1691	82	15921	36	73	-131	1512	656	5535
D:	1816.56	-1691	82	15921	36	73	-131	1512	656	5535
D:	1817.49	-1691	82	15921	36	100	-105	1512	656	5535
D:	1818.42	-1691	82	15921	-54	100	-105	1512	656	5535
D:	1819.31	-1691	-90	15704	-54	100	-105	1512	656	5535
D:	1820.20	-1666	-90	15704	-54	100	-105	1512	656	5535
D:	1821.10	-1666	-90	15704	-54	100	-105	1512	656	5535
D:	1821.99	-1666	-90	15704	-39	63	-23	1512	656	5535
D:	1822.89	-1666	-90	15704	-39	63	-23	1512	656	5535
D:	1823.79	-1563	134	15846	-39	63	-23	1512	656	5535
D:	1824.78	-1563	134	15846	-39	63	-23	1512	656	5535
D:	1825.76	-1563	134	15846	217	-14	-42	1512	656	5535
D:	1826.65	-1563	134	15846	72	-14	-42	1511	617	5502
D:	1827.58	-1669	47	15957	72	-14	-42	1511	617	5502
D:	1828.48	-1669	47	15957	72	-14	-42	1511	617	5502
D:	1829.40	-1669	47	15957	72	165	-22	1511	617	5502
D:	1830.28	-1669	47	15957	-100	165	-22	1511	617	5502
D:	1831.17	-1669	47	15957	-100	165	-22	1511	617	5502
D:	1832.12	-1661	100	15747	-100	165	-22	1511	617	5502
D:	1833.09	-1661	100	15747	-100	165	-22	1511	617	5502
D:	1834.06	-1661	100	15747	0	63	-59	1511	617	5502
D:	1834.99	-1661	100	15747	0	63	-59	1511	617	5502
D:	1835.91	-1793	76	15614	0	63	-59	1511	617	5502
D:	1836.85	-1793	76	15614	0	63	-59	1511	617	5502
D:	1837.73	-1793	76	15614	0	68	19	1511	617	5502
D:	1838.60	-1793	76	15614	35	68	19	1511	617	5502
D:	1839.48	-1650	48	15814	35	68	19	1511	617	5502
D:	1840.54	-1650	48	15814	35	68	19	1511	617	5502
D:	1841.50	-1650	48	15814	35	62	-75	1511	617	5502
D:	1842.42	-1650	48	15814	-9	62	-75	1511	617	5502
D:	1843.32	-1650	50	15661	-9	62	-75	1511	617	5502
D:	1844.22	-1605	50	15661	-9	62	-75	1511	617	5502
D:	1845.12	-1605	50	15661	-9	62	-75	1511	617	5502
D:	1846.05	-1605	50	15661	108	130	-6	1511	617	5502
D:	1846.99	-1605	50	15661	108	130	-6	1516	630	5669
D:	1848.01	-1760	86	15760	108	130	-6	1516	630	5669
D:	1849.09	-1760	86	15760	108	130	-6	1516	630	5669
D:	1850.11	-1760	86	15760	-40	74	-64	1516	630	5669
D:	1851.00	-1760	86	15760	-40	74	-64	1516	630	5669
D:	1851.90	-1695	142	15850	-40	74	-64	1516	630	5669
D:	1852.76	-1695	142	15850	-40	74	-64	1516	630	5669
D:	1853.65	-1695	142	15850	-40	69	-134	1516	630	5669
D:	1854.56	-1695	142	15850	-25	69	-134	1516	630	5669
D:	1855.46	-1527	50	15576	-25	69	-134	1516	630	5669
D:	1856.37	-1527	50	15576	-25	69	-134	1516	630	5669
D:	1857.25	-1527	50	15576	-25	69	-134	1516	630	5669
D:	1858.17	-1527	50	15576	25	118	-56	1516	630	5669
D:	1859.11	-1527	50	15576	25	118	-56	1516	630	5669
D:	1860.00	-1688	45	15657	25	118	-56	1516	630	5669
D:	1860.90	-1688	45	15657	25	118	-56	1516	630	5669
D:	1861.84	-1688	45	15657	11	90	48	1516	630	5669
D:	1862.77	-1688	45	15657	11	90	48	1516	630	5669
D:	1863.66	-1605	48	15689	11	90	48	1516	630	5669
D:	1864.56	-1605	48	15689	11	90	48	1516	630	5669
D:	1865.55	-1605	48	15689	11	132	-25	1516	630	5669
D:	1866.47	-1605	48	15689	-16	132	-25	1493	628	5563
D:	1867.40	-1692	66	15814	-16	132	-25	1493	628	5563
D:	1868.50	-1692	66	15814	-16	132	-25	1493	628	5563
D:	1869.52	-1692	66	15814	-16	119	-45	1493	628	5563
D:	1870.45	-1692	66	15814	-34	119	-45	1493	628	5563
D:	1871.41	-1601	99	15855	-34	119	-45	1493	628	5563
D:	1872.28	-1601	99	15855	-34	119	-45	1493	628	5563
D:	1873.17	-1601	99	15855	-34	119	-45	1493	628	5563
D:	1874.18	-1601	99	15855	26	91	-32	1493	628	5563
D:	1875.10	-1601	99	15855	26	91	-32	1493	628	5563
D:	1876.00	-1630	70	15564	26	91	-32	1493	628	5563
D:	1876.89	-1630	70	15564	26	91	-32	1493	628	5563
D:	1877.79	-1630	70	15564	26	35	-13	1493	628	5563
D:	1878.80	-1630	70	15564	55	35	-13	1493	628	5563
D:	1879.73	-1845	47	15836	55	35	-13	1493	628	5563
D:	1880.61	-1845	47	15836	55	35	-13	1493	628	5563
D:	1881.62	-1845	47	15836	55	151	-34	1493	628	5563
D:	1882.67	-1845	47	15836	-15	151	-34	1493	628	5563
D:	1883.58	-1630	156	15723	-15	151	-34	1493	628	5563
D:	1884.46	-1630	156	15723	-15	151	-34	1493	628	5563
D:	1885.36	-1630	156	15723	-15	151	-34	1493	628	5563
D:	1886.23	-1630	156	15723	-32	58	-31	1493	628	5563
D:	1887.10	-1630	156	15723	-32	58	-31	1513	645	5481
D:	1887.99	-1537	15	15571	-32	58	-31	1513	645	5481
D:	1888.86	-1537	15	15571	-32	58	-31	1513	645	5481
D:	1889.82	-1537	15	15571	-74	83	-84	1513	645	5481
D:	1890.78	-1537	15	15571	-74	83	-84	1513	645	5481
D:	1891.68	-1628	118	15832	-74	83	-84	1513	645	5481
D:	1892.59	-1628	118	15832	-74	83	-84	1513	645	5481
D:	1893.56	-1628	118	15832	-74	11	52	1513	645	5481
D:	1894.45	-1628	118	15832	-93	11	52	1513	645	5481
D:	1895.34	-1628	61	15500	-93	11	52	1513	645	5481
D:	1896.22	-1317	61	15500	-93	11	52	1513	645	5481
D:	1897.15	-1317	61	15500	-93	11	52	1513	645	5481
D:	1898.16	-1317	61	15500	-5	138	-8	1513	645	5481
D:	1899.11	-1317	61	15500	-5	138	-8	1513	645	5481
D:	1900.02	-1711	160	15841	-5	138	-8	1513	645	5481
D:	1900.88	-1711	160	15841	-5	138	-8	1513	645	5481
D:	1901.76	-1711	160	15841	251	100	6	1513	645	5481
D:	1902.66	-1711	160	15841	101	100	6	1513	645	5481
D:	1903.56	-1615	100	15743	101	100	6	1513	645	5481
D:	1904.47	-1615	100	15743	101	100	6	1513	645	5481
D:	1905.41	-1615	100	15743	101	48	-43	1513	645	5481
D:	1906.34	-1615	100	15743	32	48	-43	1513	645	5554
D:	1907.23	-1615	100	15743	32	48	-43	1502	641	5554
D:	1908.22	-1510	104	15678	32	48	-43	1502	641	5554
D:	1909.13	-1510	104	15678	32	48	-43	1502	641	5554
D:	1910.06	-1510	104	15678	27	38	-10	1502	641	5554
D:	1910.99	-1510	104	15678	27	38	-10	1502	641	5554
D:	1911.88	-1618	124	15918	27	38	-10	1502	641	5554
D:	1912.77	-1618	124	15918	27	38	-10	1502	641	5554
D:	1913.70	-1618	124	15918	27	79	-8	1502	641	5554
D:	1914.64	-1618	124	15918	17	79	-8	1502	641	5554
D:	1915.57	-1484	96	15363	17	79	-8	1502	641	5554
D:	1916.47	-1484	96	15363	17	79	-8	1502	641	5554
D:	1917.37	-1484	96	15363	17	79	-8	1502	641	5554
D:	1918.25	-1484	96	15363	106	103	-78	1502	641	5554
D:	1919.14	-1484	96	15363	106	103	-78	1502	641	5554
D:	1920.05	-1684	118	15741	106	103	-78	1502	641	5554
D:	1921.01	-1684	118	15741	106	103	-78	1502	641	5554
D:	1922.01	-1684	118	15741	40	90	-93	1502	641	5554
D:	1922.92	-1684	118	15741	40	90	-93	1502	641	5554
D:	1923.84	-1765	81	15801	40	90	-93	1502	641	5554
D:	1924.76	-1765	81	15801	40	90	-93	1502	641	5554
D:	1925.66	-1765	81	15801	40	19	-49	1502	641	5554
D:	1926.54	-1765	81	15801	83	19	-49	1508	628	5395
D:	1927.45	-1548	107	15772	83	19	-49	1508	628	5395
D:	1928.33	-1548	107	15772	83	19	-49	1508	628	5395
D:	1929.24	-1548	107	15772	83	19	-49	1508	628	5395
D:	1930.18	-1548	107	15772	57	111	16	1508	628	5395
D:	1931.11	-1548	107	15772	57	111	16	1508	628	5395
D:	1932.01	-1802	126	15849	57	111	16	1508	628	5395
D:	1932.90	-1802	126	15849	57	111	16	1508	628	5395
D:	1933.80	-1802	126	15849	57	69	-62	1508	628	5395
D:	1934.71	-1802	126	15849	50	69	-62	1508	628	5395
D:	1935.65	-1592	79	15672	50	69	-62	1508	628	5395
D:	1936.60	-1592	79	15672	50	69	-62	1508	628	5395
D:	1937.62	-1592	79	15672	50	72	-78	1508	628	5395
D:	1938.69	-1592	79	15672	31	72	-78	1508	628	5395
D:	1939.59	-1593	128	15848	31	72	-78	1508	628	5395
D:	1940.57	-1593	128	15848	31	72	-78	1508	628	5395
D:	1941.46	-1593	128	15848	31	31	21	1508	628	5395
D:	1942.35	-1593	128	15848	-6	31	21	1508	628	5395
D:	1943.23	-1593	128	15848	-6	31	21	1508	628	5395
D:	1944.11	-1682	88	15893	-6	31	21	1508	628	5395
D:	1945.02	-1682	88	15893	-6	31	21	1508	628	5395
D:	1946.03	-1682	88	15893	-9	84	-36	1508	628	5395
D:	1946.99	-1682	88	15893	-9	84	-36	1513	636	5625
D:	1947.89	-1688	58	15817	-9	84	-36	1513	636	5625
D:	1948.78	-1688	58	15817	-9	84	-36	1513	636	5625
D:	1949.64	-1688	58	15817	-9	127	-60	1513	636	5625
D:	1950.56	-1688	58	15817	11	127	-60	1513	636	5625
D:	1951.47	-1539	-1	15800	11	127	-60	1513	636	5625
D:	1952.38	-1539	-1	15800	11	127	-60	1513	636	5625
D:	1953.28	-1539	-1	15800	11	127	-60	1513	636	5625
D:	1954.27	-1539	-1	15800	41	117	-16	1513	636	5625
D:	1955.17	-1539	-1	15800	41	117	-16	1513	636	5625
D:	1956.10	-1696	52	15920	41	117	-16	1513	636	5625
D:	1956.99	-1696	52	15920	41	117	-16	1513	636	5625
D:	1958.01	-1696	52	15920	16	64	-74	1513	636	5625
D:	1959.03	-1696	52	15920	16	64	-74	1513	636	5625
D:	1959.92	-1530	137	15491	16	64	-74	1513	636	5625
D:	1960.84	-1530	137	15491	16	64	-74	1513	636	5625
D:	1961.80	-1530	137	15491	-240	109	-46	1513	636	5625
D:	1962.73	-1530	137	15491	-12	109	-46	1513	636	5625
D:	1963.67	-1713	106	15765	-12	109	-46	1513	636	5625
D:	1964.56	-1713	106	15765	-12	109	-46	1513	636	5625
D:	1965.46	-1713	106	15765	-12	205	-108	1513	636	5625
D:	1966.38	-1713	106	15765	70	205	-108	1513	636	5369
D:	1967.25	-1713	106	15765	70	205	-108	1513	636	5369
D:	1968.15	-1734	120	16050	70	205	-108	1513	636	5369
D:	1969.13	-1734	120	16050	70	205	-108	1513	636	5369
D:	1970.09	-1734	120	16050	59	109	-33	1513	636	5369
D:	1971.16	-1734	120	16050	59	109	-33	1518	646	5365
D:	1972.12	-1616	65	15611	59	109	-33	1518	646	5365
D:	1973.05	-1616	65	15611	59	109	-33	1518	646	5365
D:	1973.99	-1616	65	15611	-27	119	-46	1518	646	5365
D:	1974.91	-1616	65	15611	-27	119	-46	1518	646	5365
D:	1975.83	-1750	72	15905	-27	119	-46	1518	646	5365
D:	1976.84	-1750	72	15905	-27	119	-46	1518	646	5365
D:	1977.83	-1750	72	15905	2	136	-97	1518	646	5365
D:	1978.74	-1750	72	15905	2	136	-97	1518	646	5365
D:	1979.63	-1557	80	15759	2	136	-97	1518	646	5365
D:	1980.58	-1557	80	15759	2	136	-97	1518	646	5365
D:	1981.48	-1557	80	15759	2	61	-225	1518	646	5365
D:	1982.36	-1557	80	15759	35	61	-225	1518	646	5365
D:	1983.27	-1557	80	15759	35	61	-225	1518	646	5365
D:	1984.15	-1686	120	15792	35	61	-225	1518	646	5365
D:	1985.18	-1686	120	15792	35	61	-225	1518	646	5365
D:	1986.15	-1686	120	15792	17	130	-38	1518	646	5365
D:	1987.11	-1686	120	15792	17	130	-38	1518	646	5365
D:	1987.99	-1595	34	15829	17	130	-38	1518	646	5365
D:	1988.89	-1595	34	15829	17	130	-38	1518	646	5365
D:	1989.87	-1595	34	15829	-96	166	-53	1518	646	5365
D:	1990.84	-1595	34	15829	-96	166	-53	1515	663	5422
D:	1991.74	-1625	-5	15715	-96	166	-53	1515	663	5422
D:	1992.63	-1625	-5	15715	-96	166	-53	1515	663	5422
D:	1993.57	-1625	-5	15715	-96	186	-114	1515	663	5422
D:	1994.45	-1625	-5	15715	-75	186	-114	1515	663	5422
D:	1995.33	-1625	150	15889	-75	186	-114	1515	663	5422
D:	1996.22	-1645	150	15889	-75	186	-114	1515	663	5422
D:	1997.11	-1645	150	15889	-75	186	-114	1515	663	5422
D:	1997.99	-1645	150	15889	-64	122	-20	1515	663	5422
D:	1998.89	-1645	150	15889	-64	122	-20	1515	663	5422
D:	1999.79	-1639	78	15915	-64	122	-20	1515	663	5422
D:	2000.69	-1639	78	15915	-64	122	-20	1515	663	5422
D:	2001.57	-1639	78	15915	-64	1	19	1515	663	5422
D:	2002.43	-1639	78	15915	219	1	19	1515	663	5422
D:	2003.32	-1639	45	15402	219	1	19	1515	663	5422
D:	2004.20	-1651	45	15402	219	1	19	1515	663	5422
D:	2005.11	-1651	45	15402	219	1	19	1515	663	5422
D:	2006.00	-1651	45	15402	3	48	5	1515	663	5422
D:	2006.89	-1651	45	15402	3	48	5	1515	663	5422
D:	2007.86	-1629	146	15836	3	48	5	1515	663	5422
D:	2008.91	-1629	146	15836	3	48	5	1515	663	5422
D:	2009.84	-1629	146	15836	17	62	-32	1515	663	5422
D:	2010.81	-1629	146	15836	17	62	-32	1517	626	5520
D:	2011.71	-1630	-1	15688	17	62	-32	1517	626	5520
D:	2012.61	-1630	-1	15688	17	62	-32	1517	626	5520
D:	2013.57	-1630	-1	15688	17	89	-13	1517	626	5520
D:	2014.47	-1630	-1	15688	58	89	-13	1517	626	5520
D:	2015.35	-1654	94	15736	58	89	-13	1517	626	5520
D:	2016.24	-1654	94	15736	58	89	-13	1517	626	5520
D:	2017.14	-1654	94	15736	58	89	-13	1517	626	5520
D:	2018.16	-1654	94	15736	-2	19	-5	1517	626	5520
D:	2019.12	-1654	94	15736	-2	19	-5	1517	626	5520
D:	2019.99	-1733	-13	15756	-2	19	-5	1517	626	5520
D:	2020.90	-1733	-13	15756	-2	19	-5	1517	626	5520
D:	2021.79	-1733	-13	15756	254	-10	-59	1517	626	5520
D:	2022.81	-1733	-13	15756	38	-10	-59	1517	626	5520
D:	2023.85	-1591	80	15499	38	-10	-59	1517	626	5520
D:	2024.74	-1591	80	15499	38	-10	-59	1517	626	5520
D:	2025.66	-1591	80	15499	38	82	-81	1517	626	5520
D:	2026.60	-1591	80	15499	30	82	-81	1517	626	5520
D:	2027.63	-1721	152	15877	30	82	-81	1517	626	5520
D:	2028.58	-1721	152	15877	30	82	-81	1517	626	5520
D:	2029.46	-1721	152	15877	30	28	-18	1517	626	5520
D:	2030.33	-1721	152	15877	-1	28	-18	1517	626	5520
D:	2031.24	-1721	152	15877	-1	28	-18	1505	644	5547
D:	2032.14	-1633	39	15692	-1	28	-18	1505	644	5547
D:	2033.05	-1633	39	15692	-1	28	-18	1505	644	5547
D:	2034.01	-1633	39	15692	36	81	28	1505	644	5547
D:	2035.04	-1633	39	15692	36	81	28	1505	644	5547
D:	2035.99	-1664	100	15484	36	81	28	1505	644	5547
D:	2036.86	-1664	100	15484	36	81	28	1505	644	5547
D:	2037.77	-1664	100	15484	-220	80	-41	1505	644	5547
D:	2038.67	-1664	100	15484	-19	80	-41	1505	644	5547
D:	2039.54	-1693	20	15805	-19	80	-41	1505	644	5547
D:	2040.43	-1693	20	15805	-19	80	-41	1505	644	5547
D:	2041.31	-1693	20	15805	-19	80	-41	1505	644	5547
D:	2042.21	-1693	20	15805	-41	113	-63	1505	644	5547
D:	2043.11	-1693	20	15805	-41	113	-63	1505	644	5547
D:	2044.01	-1488	45	15716	-41	113	-63	1505	644	5547
D:	2044.91	-1488	45	15716	-41	113	-63	1505	644	5547
D:	2045.84	-1488	45	15716	-15	158	-18	1505	644	5547
D:	2046.78	-1488	45	15716	-15	158	-18	1505	644	5547
D:	2047.69	-1675	100	15757	-15	158	-18	1505	644	5547
D:	2048.59	-1675	100	15757	-15	158	-18	1505	644	5547
D:	2049.47	-1675	100	15757	-15	174	191	1505	644	5547
D:	2050.35	-1675	100	15757	-40	174	191	1505	644	5410
D:	2051.25	-1675	100	15757	-40	174	191	1506	664	5410
D:	2052.16	-1706	86	15705	-40	174	191	1506	664	5410
D:	2053.11	-1706	86	15705	-40	174	191	1506	664	5410
D:	2054.00	-1706	86	15705	-7	62	-12	1506	664	5410
D:	2054.90	-1706	86	15705	-7	62	-12	1506	664	5410
D:	2055.80	-1509	45	15606	-7	62	-12	1506	664	5410
D:	2056.68	-1509	45	15606	-7	62	-12	1506	664	5410
D:	2057.57	-1509	45	15606	-7	161	-51	1506	664	5410
D:	2058.45	-1509	45	15606	-53	161	-51	1506	664	5410
D:	2059.40	-1678	126	15876	-53	161	-51	1506	664	5410
D:	2060.38	-1678	126	15876	-53	161	-51	1506	664	5410
D:	2061.29	-1678	126	15876	-53	161	-51	1506	664	5410
D:	2062.19	-1678	126	15876	-12	41	-117	1506	664	5410
D:	2063.12	-1678	126	15876	-12	41	-117	1506	664	5410
D:	2064.05	-1589	24	15650	-12	41	-117	1506	664	5410
D:	2064.99	-1589	24	15650	-12	41	-117	1506	664	5410
D:	2065.88	-1589	24	15650	-38	24	-65	1506	664	5410
D:	2066.76	-1589	24	15650	-38	24	-65	1506	664	5410
D:	2067.65	-1699	100	15684	-38	24	-65	1506	664	5410
D:	2068.72	-1699	100	15684	-38	24	-65	1506	664	5410
D:	2069.64	-1699	100	15684	-38	104	13	1506	664	5410
D:	2070.56	-1699	100	15684	224	104	13	1498	644	5512
D:	2071.43	-1741	116	15886	224	104	13	1498	644	5512
D:	2072.35	-1741	116	15886	224	104	13	1498	644	5512
D:	2073.35	-1741	116	15886	224	104	13	1498	644	5512
D:	2074.25	-1741	116	15886	-44	105	-69	1498	644	5512
D:	2075.13	-1741	116	15886	-44	105	-69	1498	644	5512
D:	2076.05	-1548	74	15514	-44	105	-69	1498	644	5512
D:	2076.92	-1548	74	15514	-44	105	-69	1498	644	5512
D:	2077.84	-1548	74	15514	-14	127	-96	1498	644	5512
D:	2078.77	-1548	74	15514	-14	127	-96	1498	644	5512
D:	2079.64	-1781	46	15802	-14	127	-96	1498	644	5512
D:	2080.56	-1781	46	15802	-14	127	-96	1498	644	5512
D:	2081.54	-1781	46	15802	-14	72	-24	1498	644	5512
D:	2082.60	-1781	46	15802	-29	72	-24	1498	644	5512
D:	2083.60	-1533	100	15549	-29	72	-24	1498	644	5512
D:	2084.60	-1533	100	15549	-29	72	-24	1498	644	5512
D:	2085.55	-1533	100	15549	-29	118	-41	1498	644	5512
D:	2086.55	-1533	100	15549	-41	118	-41	1498	644	5512
D:	2087.60	-1619	97	15629	-41	118	-41	1498	644	5512
D:	2088.57	-1619	97	15629	-41	118	-41	1498	644	5512
D:	2089.45	-1619	97	15629	-41	83	6	1498	644	5512
D:	2090.39	-1619	97	15629	-87	83	6	1509	647	5407
D:	2091.39	-1663	120	15780	-87	83	6	1509	647	5407
D:	2092.27	-1663	120	15780	-87	83	6	1509	647	5407
D:	2093.15	-1663	120	15780	-87	83	6	1509	647	5407
D:	2094.10	-1663	120	15780	-16	108	-5	1509	647	5407
D:	2095.11	-1663	120	15780	-16	108	-5	1509	647	5407
D:	2096.01	-1733	56	15674	-16	108	-5	1509	647	5407
D:	2096.90	-1733	56	15674	-16	108	-5	1509	647	5407
D:	2097.78	-1733	56	15674	240	164	-10	1509	647	5407
D:	2098.68	-1733	56	15674	30	164	-10	1509	647	5407
D:	2099.57	-1651	81	15913	30	164	-10	1509	647	5407
D:	2100.46	-1651	81	15913	30	164	-10	1509	647	5407
D:	2101.47	-1651	81	15913	30	95	-42	1509	647	5407
D:	2102.33	-1651	81	15913	39	95	-42	1509	647	5407
D:	2103.20	-1651	81	15913	39	95	-42	1509	647	5407
D:	2104.11	-1658	-13	15553	39	95	-42	1509	647	5407
D:	2105.00	-1658	-13	15553	39	95	-42	1509	647	5407
D:	2105.90	-1658	-13	15553	-11	41	48	1509	647	5407
D:	2106.82	-1658	-13	15553	-11	41	48	1509	647	5407
D:	2107.77	-1574	52	15574	-11	41	48	1509	647	5407
D:	2108.80	-1574	52	15574	-11	41	48	1509	647	5407
D:	2109.69	-1574	52	15574	-11	71	-20	1509	647	5407
D:	2110.59	-1574	52	15574	-18	71	-20	1508	646	5666
D:	2111.57	-1658	120	15920	-18	71	-20	1508	646	5666
D:	2112.46	-1658	120	15920	-18	71	-20	1508	646	5666
D:	2113.35	-1658	120	15920	-18	71	-20	1508	646	5666
D:	2114.24	-1658	120	15920	15	9	-80	1508	646	5666
D:	2115.14	-1658	120	15920	15	9	-80	1508	646	5666
D:	2116.05	-1478	93	15619	15	9	-80	1508	646	5666
D:	2116.99	-1478	93	15619	15	9	-80	1508	646	5666
D:	2117.89	-1478	93	15619	-72	23	-251	1508	646	5666
D:	2118.77	-1478	93	15619	-72	23	-251	1508	646	5666
D:	2119.67	-1686	-3	15830	-72	23	-251	1508	646	5666
D:	2120.56	-1686	-3	15830	-72	23	-251	1508	646	5666
D:	2121.46	-1686	-3	15830	-72	185	-44	1508	646	5666
D:	2122.33	-1686	-3	15830	-50	185	-44	1508	646	5666
D:	2123.23	-1686	-3	15830	-50	185	-44	1508	646	5666
D:	2124.16	-1496	60	15674	-50	185	-44	1508	646	5666
D:	2125.15	-1496	60	15674	-50	185	-44	1508	646	5666
D:	2126.15	-1496	60	15674	80	68	-3	1508	646	5666
D:	2127.14	-1496	60	15674	80	68	-3	1508	646	5666
D:	2128.05	-1767	33	15579	80	68	-3	1508	646	5666
D:	2128.93	-1767	33	15579	80	68	-3	1508	646	5666
D:	2129.82	-1767	33	15579	80	110	-45	1508	646	5666
D:	2130.71	-1767	33	15579	13	110	-45	1508	646	5666
D:	2131.61	-1742	74	15894	13	110	-45	1508	646	5666
D:	2132.57	-1742	74	15894	13	110	-45	1508	646	5666
D:	2133.46	-1742	74	15894	13	143	-14	1508	646	5666
D:	2134.33	-1742	74	15894	-50	143	-14	1508	646	5666
D:	2135.20	-1742	74	15894	-50	143	-14	1516	635	5584
D:	2136.11	-1515	30	15736	-50	143	-14	1516	635	5584
D:	2136.99	-1515	30	15736	-50	143	-14	1516	635	5584
D:	2137.89	-1515	30	15736	19	145	-58	1516	635	5584
D:	2138.77	-1515	30	15736	19	145	-58	1516	635	5584
D:	2139.67	-1806	78	15858	19	145	-58	1516	635	5584
D:	2140.65	-1806	78	15858	19	145	-58	1516	635	5584
D:	2141.71	-1806	78	15858	19	142	-55	1516	635	5584
D:	2142.61	-1806	78	15858	-35	142	-55	1516	635	5584
D:	2143.56	-1638	90	15792	-35	142	-55	1516	635	5584
D:	2144.45	-1638	90	15792	-35	142	-55	1516	635	5584
D:	2145.34	-1638	90	15792	-35	142	-55	1516	635	5584
D:	2146.22	-1638	90	15792	53	57	6	1516	635	5584
D:	2147.11	-1638	90	15792	53	57	6	1516	635	5584
D:	2148.01	-1598	68	15672	53	57	6	1516	635	5584
D:	2148.91	-1598	68	15672	53	57	6	1516	635	5584
D:	2149.84	-1598	68	15672	14	58	-9	1516	635	5584
D:	2150.73	-1598	68	15672	14	58	-9	1516	635	5584
D:	2151.63	-1561	126	15902	14	58	-9	1516	635	5584
D:	2152.58	-1561	126	15902	14	58	-9	1516	635	5584
D:	2153.57	-1561	126	15902	14	70	-82	1516	635	5584
D:	2154.61	-1561	126	15902	-24	70	-82	1514	671	5357
D:	2155.56	-1586	54	15869	-24	70	-82	1514	671	5357
D:	2156.45	-1586	54	15869	-24	70	-82	1514	671	5357
D:	2157.36	-1586	54	15869	-24	70	-82	1514	671	5357
D:	2158.29	-1586	54	15869	28	66	-23	1514	671	5357
D:	2159.19	-1586	54	15869	28	66	-23	1514	671	5357
D:	2160.12	-1699	-25	15826	28	66	-23	1514	671	5357
D:	2161.06	-1699	-25	15826	28	66	-23	1514	671	5357
D:	2162.09	-1699	-25	15826	-4	121	-75	1514	671	5357
D:	2162.99	-1699	-25	15826	-4	121	-75	1514	671	5357
D:	2163.88	-1764	153	15750	-4	121	-75	1514	671	5357
D:	2164.76	-1764	153	15750	-4	121	-75	1514	671	5357
D:	2165.64	-1764	153	15750	-4	122	-67	1514	671	5357
D:	2166.56	-1764	153	15750	-10	122	-67	1514	671	5357
D:	2167.46	-1583	76	15670	-10	122	-67	1514	671	5357
D:	2168.31	-1583	76	15670	-10	122	-67	1514	671	5357
D:	2169.26	-1583	76	15670	-10	122	-67	1514	671	5357
D:	2170.17	-1583	76	15670	87	110	-120	1514	671	5357
D:	2171.12	-1583	76	15670	87	110	-120	1514	671	5357
D:	2172.05	-1614	50	15743	87	110	-120	1514	671	5357
