Syntax version=4
Wed May 02 13:32:13 2018
Starting process (2533211 clocks per sec)

LogRawData=false
VarHeader=1
D:		imu_acc_x	imu_acc_y	imu_acc_z	imu_gyro_x	imu_gyro_y	imu_gyro_z	imu_mag_x	imu_mag_y	imu_mag_z	Roll	Pitch	Yaw
D:	time(ms)	(0x20000236,3)	(0x20000238,3)	(0x2000023a,3)	(0x2000022a,3)	(0x2000022c,3)	(0x2000022e,3)	(0x20000230,3)	(0x20000232,3)	(0x20000234,3)	(0x200004dc,6)	(0x200005c4,6)	(0x20000484,6)
D:	0.09	-1715	-757	-16184	-24	89	-31	2642	-349	-4871	-177.327209	6.042614	-2.206537
D:	3.91	-1745	-797	-16259	49	18	-29	2650	-374	-4842	-177.327209	6.118721	-2.479248
D:	7.68	-1745	-797	-16259	12	139	-24	2650	-374	-4842	-177.198883	6.254119	-2.442341
D:	11.30	-1850	-832	-16861	4	81	2	2650	-374	-4842	-177.180267	6.300707	-2.822901
D:	14.93	-1792	-729	-16214	-108	5	-160	2650	-374	-4842	-177.430878	6.275082	-2.534900
D:	18.74	-1813	-795	-16469	22	61	-214	2650	-374	-4842	-177.241562	6.108919	-2.376081
D:	22.58	-1744	-817	-16275	-64	108	-200	2650	-374	-4842	-177.131409	6.287468	-0.656844
D:	26.41	-1806	-1006	-16361	-88	194	-99	2642	-352	-5129	-176.486649	5.862305	-2.283097
D:	29.90	-1713	-735	-16668	-88	176	-108	2642	-352	-5129	-177.480331	5.862305	-1.899083
D:	33.54	-1896	-776	-16237	-67	176	-108	2642	-352	-5129	-177.269043	6.652956	-1.940992
D:	37.30	-1681	-823	-16456	-7	115	-118	2642	-352	-5129	-177.142136	5.825542	-1.734152
D:	40.93	-1660	-725	-16257	-60	109	-20	2642	-352	-5129	-177.451767	5.824680	-2.796032
D:	44.70	-1793	-777	-16164	65	16	-56	2637	-375	-4978	-177.253143	6.322633	-2.448200
D:	48.54	-1848	-734	-16749	-16	20	-30	2637	-375	-4978	-177.495941	6.290455	-2.831912
D:	52.54	-1942	-737	-16629	202	125	8	2637	-375	-4978	-177.467545	6.654776	-2.761485
D:	56.36	-1856	-764	-16439	-47	54	24	2637	-375	-4978	-177.344330	6.434847	-2.584024
D:	60.09	-1781	-731	-16516	-76	76	-24	2637	-375	-4978	-177.470963	6.148905	-2.802868
D:	63.92	-1621	-819	-16394	-92	135	61	2639	-361	-4991	-177.470963	5.640095	-2.048618
D:	67.52	-1621	-819	-16394	-77	199	6	2639	-361	-4991	-177.145264	5.897571	-2.289539
D:	71.22	-1717	-783	-16604	-98	138	27	2639	-361	-4991	-177.305313	6.327781	-1.973831
D:	74.83	-1807	-820	-16275	-64	148	12	2639	-361	-4991	-177.120880	6.065296	-2.189126
D:	78.38	-1765	-799	-16592	-67	156	-2	2639	-361	-4991	-177.248230	6.737069	-2.457404
D:	81.90	-1938	-733	-16390	-67	62	-12	2639	-361	-4991	-177.444534	6.737031	-2.445773
D:	86.10	-1658	-799	-16183	-50	80	-40	2647	-385	-5069	-177.178650	5.842830	-2.356446
D:	89.74	-1585	-835	-16505	-33	80	-40	2647	-385	-5069	-177.109039	5.478578	-2.328779
D:	93.44	-1697	-597	-16351	-70	-10	-24	2647	-385	-5069	-177.914230	5.921525	-3.621323
D:	97.31	-1513	-828	-16741	-59	91	-98	2647	-385	-5069	-177.173721	5.158068	-2.414297
D:	101.12	-1793	-807	-16454	73	-5	8	2647	-385	-5069	-177.197342	6.211784	-1.837541
D:	104.86	-1881	-699	-16304	11	135	52	2644	-356	-5170	-177.550308	6.575351	-2.387177
D:	108.41	-1672	-832	-16209	-56	23	51	2644	-356	-5170	-177.066849	5.881862	-1.640099
D:	112.00	-1740	-803	-16216	32	248	-12	2644	-356	-5170	-177.170303	6.117228	-1.798163
D:	115.82	-1665	-801	-16670	-89	6	21	2644	-356	-5170	-177.170303	5.697425	-1.956761
D:	119.61	-1665	-801	-16670	-250	151	-31	2644	-356	-5170	-177.254272	6.395401	-2.054977
D:	123.20	-1835	-762	-16354	25	96	-9	2642	-365	-4885	-177.337509	6.002441	-1.213159
D:	126.85	-1728	-1002	-16404	-61	16	-34	2642	-365	-4885	-176.509766	5.978941	-2.568598
D:	130.52	-1746	-764	-16654	-34	110	-62	2642	-365	-4885	-177.378632	6.134120	-2.606098
D:	134.29	-1763	-743	-16388	222	6	37	2642	-365	-4885	-177.409332	6.516127	-2.572571
D:	138.31	-1915	-761	-16749	48	25	-44	2642	-365	-4885	-177.403763	6.569883	-3.048552
D:	142.01	-1883	-653	-16337	5	155	-22	2642	-365	-4885	-177.716309	6.128201	-1.799979
D:	145.99	-1753	-843	-16307	23	82	19	2642	-355	-4946	-177.045898	6.127786	-2.059184
D:	149.65	-1701	-794	-16263	49	82	19	2653	-355	-4946	-177.210129	5.964164	-2.127245
D:	153.29	-1781	-785	-16381	-37	99	-40	2653	-355	-4946	-177.261642	6.198152	-2.127245
D:	156.81	-1871	-857	-16448	11	131	-40	2653	-355	-4946	-177.022598	6.481114	-1.741604
D:	160.38	-1923	-798	-16337	-4	90	-9	2653	-355	-4946	-177.208771	6.705572	-2.018708
D:	164.06	-1945	-755	-16557	35	97	-51	2653	-355	-4946	-177.394348	6.693304	-2.305307
D:	167.92	-1788	-829	-16408	-42	61	34	2642	-390	-4966	-177.112869	6.211375	-2.513139
D:	171.74	-1788	-829	-16408	2	48	-62	2642	-390	-4966	-177.112869	6.159607	-2.469099
D:	175.44	-1778	-840	-16454	49	97	-63	2642	-390	-4966	-177.082718	5.968881	-2.948712
D:	179.16	-1686	-739	-16109	120	141	-17	2642	-390	-4966	-177.378632	6.048948	-2.641972
D:	182.82	-1729	-802	-16297	43	128	-55	2642	-390	-4966	-177.187881	5.926090	-2.734409
D:	186.41	-1724	-801	-16590	-59	180	-8	2642	-390	-4966	-177.241028	6.846740	-2.555574
D:	189.99	-1938	-673	-16127	-59	146	-137	2645	-351	-4965	-177.615601	6.846740	-2.267312
D:	193.54	-1674	-761	-16646	-19	146	-137	2645	-351	-4965	-177.387665	5.736843	-2.256399
D:	197.11	-1720	-829	-16561	48	114	-86	2645	-351	-4965	-177.139542	5.922205	-1.864185
D:	200.67	-1815	-765	-16218	62	151	3	2645	-351	-4965	-177.304611	6.378710	-2.100319
D:	204.46	-1697	-778	-16580	-94	60	11	2645	-351	-4965	-177.318634	5.837793	-2.759949
D:	208.21	-1916	-787	-16192	-81	166	-17	2653	-384	-4950	-177.222610	6.740746	-2.549410
D:	211.87	-1650	-757	-16179	13	55	-28	2653	-384	-4950	-177.222610	5.816974	-2.773599
D:	215.65	-1650	-757	-16179	-53	105	-41	2653	-384	-4950	-177.326370	6.642657	-2.442714
D:	219.44	-1919	-821	-16458	-51	103	4	2653	-384	-4950	-177.149414	6.201363	-2.619999
D:	223.06	-1785	-791	-16409	-47	35	-26	2653	-384	-4950	-177.245407	5.982211	-4.145791
D:	226.62	-1729	-517	-16492	37	-7	-57	2653	-384	-4950	-178.209702	6.384448	-2.052529
D:	230.30	-1829	-837	-16325	37	-2	-5	2632	-359	-4797	-177.070160	5.666263	-2.649390
D:	233.93	-1646	-745	-16569	32	-9	-10	2632	-359	-4797	-177.430740	5.667749	-2.468338
D:	237.73	-1886	-759	-16368	-4	-9	-10	2632	-359	-4797	-177.350266	6.566110	-2.185204
D:	241.48	-1872	-827	-16630	70	104	-50	2632	-359	-4797	-177.158279	6.414943	-2.179598
D:	245.03	-1889	-773	-16514	74	-1	27	2632	-359	-4797	-177.325241	6.518691	-2.191285
D:	248.89	-1910	-781	-16297	-11	0	-43	2648	-354	-4949	-177.261536	6.677145	-2.084152
D:	252.82	-1904	-823	-16438	50	113	52	2648	-354	-4949	-177.139008	6.599082	-1.898522
D:	256.49	-1788	-725	-16294	68	27	-58	2648	-354	-4949	-177.457535	6.256263	-2.412432
D:	260.03	-1701	-795	-16565	-11	-47	-35	2648	-354	-4949	-177.257553	5.856426	-2.121944
D:	263.62	-1701	-795	-16565	-2	51	19	2648	-354	-4949	-177.257553	6.587393	-2.093919
D:	267.15	-1896	-785	-16400	38	166	76	2660	-342	-4861	-177.264801	6.631603	-1.880047
D:	270.92	-1879	-786	-16143	186	138	39	2660	-342	-4861	-177.217712	6.331656	-1.854936
D:	274.59	-1829	-809	-16464	110	143	29	2660	-342	-4861	-177.192123	6.549395	-2.343413
D:	278.18	-1877	-709	-16334	110	52	-76	2660	-342	-4861	-177.519791	6.411713	-2.028994
D:	281.88	-1851	-775	-16454	-14	52	-76	2660	-342	-4861	-177.308533	6.411669	-2.130497
D:	285.47	-1846	-751	-16353	51	57	24	2660	-342	-4861	-177.375793	6.434006	-2.439018
D:	289.02	-1855	-786	-16169	127	-6	13	2648	-368	-5037	-177.222183	6.537226	-2.197422
D:	292.62	-1892	-759	-16299	56	111	-9	2648	-368	-5037	-177.339035	6.614394	-2.376518
D:	296.16	-1866	-728	-16281	97	157	86	2648	-368	-5037	-177.444962	6.531984	-2.548100
D:	299.74	-1866	-728	-16281	64	104	57	2648	-368	-5037	-177.444962	5.931106	-2.448747
D:	303.30	-1707	-759	-16414	100	102	149	2648	-368	-5037	-177.357712	6.435864	-2.184431
D:	307.31	-1846	-798	-16346	123	135	9	2648	-317	-4983	-177.210312	6.159640	-1.550401
D:	311.05	-1756	-754	-16254	111	21	85	2652	-317	-4983	-177.349258	5.806763	-1.387591
D:	314.71	-1692	-803	-16619	75	52	48	2652	-317	-4983	-177.238937	6.081078	-2.093816
D:	318.32	-1751	-663	-16423	63	-16	15	2652	-317	-4983	-177.693451	6.248320	-1.255656
D:	322.06	-1772	-802	-16165	63	59	47	2652	-317	-4983	-177.164917	6.374844	-1.959778
D:	325.62	-1819	-678	-16262	107	59	47	2652	-317	-4983	-177.617844	6.377033	-1.959778
D:	329.16	-1813	-765	-16224	75	102	-18	2652	-317	-4983	-177.305603	6.369407	-2.300887
D:	332.76	-1664	-884	-16674	71	48	58	2651	-361	-4940	-176.970444	5.691253	-1.811502
D:	336.53	-1795	-804	-16121	80	14	119	2651	-361	-4940	-177.150101	6.345819	-2.060588
D:	340.11	-1705	-746	-16294	118	-10	54	2651	-361	-4940	-177.383850	5.967646	-2.447349
D:	343.67	-1705	-746	-16294	67	58	34	2651	-361	-4940	-177.383850	6.043500	-2.486959
D:	347.29	-1734	-741	-16362	40	4	21	2651	-361	-4940	-177.412186	6.191268	-2.652880
D:	350.82	-1782	-711	-16412	23	-6	-12	2644	-340	-4994	-177.524628	6.494143	-1.551210
D:	354.71	-1835	-817	-16100	36	20	40	2644	-340	-4994	-177.100220	6.392904	-2.530756
D:	358.40	-1825	-649	-16276	-8	143	37	2644	-340	-4994	-177.721802	5.928232	-1.632498
D:	362.13	-1741	-839	-16746	-8	105	86	2644	-340	-4994	-177.137024	5.928232	-1.800651
D:	365.74	-1910	-782	-16335	-26	105	86	2644	-340	-4994	-177.264420	6.661767	-1.843324
D:	369.30	-1657	-757	-16427	135	119	22	2644	-340	-4994	-177.366760	5.754076	-2.309481
D:	372.90	-1725	-848	-16506	-21	136	27	2644	-357	-5002	-177.064224	5.958552	-1.816235
D:	376.63	-1757	-860	-16252	-6	210	-25	2644	-357	-5002	-176.976151	6.161896	-1.667347
D:	380.16	-1768	-817	-16809	45	142	30	2644	-357	-5002	-177.222565	5.997541	-2.065871
D:	383.87	-1860	-762	-16338	51	79	63	2644	-357	-5002	-177.334900	6.488075	-2.216024
D:	387.91	-1800	-730	-16455	47	140	59	2644	-357	-5002	-177.334900	6.236819	-2.435698
D:	391.66	-1800	-730	-16455	79	4	49	2642	-329	-4839	-177.465057	6.072161	-2.217132
D:	395.29	-1752	-705	-16455	254	-28	45	2642	-329	-4839	-177.551941	5.622422	-2.087574
D:	398.86	-1587	-718	-16105	62	144	-10	2642	-329	-4839	-177.452545	6.102931	-1.426324
D:	402.39	-1730	-837	-16159	-4	163	22	2642	-329	-4839	-177.040070	6.265502	-1.820172
D:	405.91	-1789	-769	-16277	-4	43	148	2642	-329	-4839	-177.300339	5.983312	-2.243630
D:	409.68	-1736	-705	-16549	39	43	148	2642	-329	-4839	-177.565872	5.983249	-2.735452
D:	413.39	-1814	-726	-16232	99	75	39	2642	-374	-4964	-177.444305	6.370478	-2.735452
D:	416.96	-1732	-761	-16635	115	78	86	2642	-374	-4964	-177.385956	5.938104	-2.673853
D:	421.27	-1891	-786	-16509	66	45	86	2642	-374	-4964	-177.279419	6.527249	-2.540980
D:	425.73	-1807	-766	-16317	-9	115	-14	2642	-374	-4964	-177.317459	6.576823	-2.247623
D:	430.26	-1923	-834	-16662	-141	125	84	2642	-374	-4964	-177.139740	6.499485	-2.643786
D:	434.64	-1874	-671	-16436	50	36	109	2655	-341	-4756	-177.667450	5.574684	-2.206099
D:	439.25	-1611	-767	-16488	81	82	76	2655	-341	-4756	-177.341843	5.972251	-2.194852
D:	443.86	-1855	-761	-16161	73	121	37	2655	-341	-4756	-177.309235	6.540905	-2.105199
D:	447.92	-1785	-855	-16706	66	42	-22	2655	-341	-4756	-177.309235	6.091059	-1.774625
D:	451.77	-1817	-781	-16279	9	102	95	2639	-375	-4939	-177.075439	6.361707	-2.489677
D:	455.50	-1817	-781	-16279	129	112	137	2639	-375	-4939	-177.258514	5.835694	-2.674521
D:	459.07	-1708	-773	-16694	44	59	14	2639	-375	-4939	-177.354095	6.201578	-2.565858
D:	462.60	-1810	-786	-16639	3	78	-57	2639	-375	-4939	-177.300690	6.846611	-2.834129
D:	466.13	-1960	-713	-16309	3	111	86	2639	-375	-4939	-177.501968	6.846611	-2.340490
D:	469.94	-1774	-810	-16281	-11	157	-32	2639	-375	-4939	-177.157028	6.211056	-1.917789
D:	473.60	-1828	-861	-16348	46	157	-32	2639	-375	-5090	-176.990417	6.371624	-1.023276
D:	477.20	-1734	-798	-16756	104	10	60	2633	-325	-5090	-177.278595	5.901773	-1.503397
D:	480.89	-1789	-741	-16523	23	107	31	2633	-325	-5090	-177.437424	6.173557	-1.748240
D:	484.53	-1692	-782	-16626	-56	122	77	2633	-325	-5090	-177.312332	5.804687	-1.562123
D:	489.14	-1718	-602	-16574	-47	261	1	2633	-325	-5090	-177.925064	5.914237	-1.287162
D:	494.15	-1807	-808	-16227	-73	136	-22	2633	-325	-5090	-177.154617	6.391111	-2.739822
D:	498.95	-1830	-727	-16322	-15	204	3	2641	-375	-4997	-177.454895	6.221478	-2.901409
D:	503.62	-1512	-844	-16615	62	76	59	2641	-375	-4997	-177.097244	5.193209	-2.247377
D:	508.38	-1959	-777	-16319	-40	190	39	2641	-375	-4997	-177.279251	6.837794	-2.436018
D:	512.02	-1719	-748	-16483	-33	252	-48	2641	-375	-4997	-177.406921	5.947911	-2.695182
D:	515.61	-1719	-748	-16483	-36	59	19	2644	-344	-4909	-177.406921	5.946640	-2.241935
D:	519.16	-1721	-743	-16506	-10	76	106	2644	-344	-4909	-177.427872	6.637704	-3.354388
D:	522.80	-1908	-523	-16388	2	70	49	2644	-344	-4909	-178.177368	5.826589	-2.107056
D:	526.38	-1675	-764	-16397	-13	86	10	2644	-344	-4909	-177.337524	6.364920	-2.363584
D:	529.96	-1820	-707	-16301	-13	128	-13	2644	-344	-4909	-177.521790	6.364920	-1.717329
D:	533.47	-1760	-853	-16772	-18	128	-13	2644	-344	-4909	-177.093750	5.983011	-2.002735
D:	537.31	-1931	-825	-16546	-13	63	38	2643	-365	-5007	-177.150772	6.648600	-2.057830
D:	541.00	-1822	-781	-16443	51	55	14	2643	-365	-5007	-177.285889	6.316105	-2.288429
D:	544.78	-1870	-696	-16408	-21	130	-59	2643	-365	-5007	-177.576309	6.496277	-2.733401
D:	548.59	-1788	-721	-16203	-40	92	51	2643	-365	-5007	-177.457382	6.291118	-2.560354
D:	552.41	-1808	-850	-16353	6	59	-8	2643	-365	-5007	-177.029755	6.300790	-1.885340
D:	555.92	-1793	-797	-16281	7	-7	50	2640	-328	-4838	-177.029755	6.277294	-1.653614
D:	559.49	-1793	-797	-16281	-64	156	15	2640	-328	-4838	-177.202682	6.699381	-1.731420
D:	563.03	-1919	-781	-16319	-88	194	-97	2640	-328	-4838	-177.265228	6.617223	-2.443273
D:	566.64	-1894	-648	-16314	-81	98	-53	2640	-328	-4838	-177.730621	6.278481	-1.472319
D:	570.45	-1803	-835	-16367	-88	190	-125	2640	-328	-4838	-177.084686	6.091856	-1.758615
D:	574.20	-1764	-790	-16510	-88	224	-63	2640	-328	-4838	-177.265717	6.281585	-1.984894
D:	577.89	-1782	-833	-16168	-124	218	-73	2645	-364	-4930	-177.055862	6.281544	-2.529598
D:	581.50	-1721	-744	-16318	-101	218	-73	2645	-364	-4930	-177.394699	6.014496	-2.529598
D:	585.22	-1669	-872	-16581	-64	244	-35	2645	-364	-4930	-176.994781	5.740173	-1.916239
D:	588.90	-1667	-531	-16307	-75	164	-88	2645	-364	-4930	-178.140198	5.833947	-3.713478
D:	592.57	-1530	-838	-16494	-12	169	-90	2645	-364	-4930	-177.096725	5.293016	-2.076332
D:	596.11	-1850	-669	-16139	-13	160	-118	2637	-354	-4776	-177.631546	6.533856	-2.820283
D:	599.62	-1850	-669	-16139	-38	142	-5	2637	-354	-4776	-177.631546	6.123973	-1.996144
D:	603.16	-1751	-835	-16299	43	159	-67	2637	-354	-4776	-177.072525	6.018182	-2.639688
D:	606.75	-1727	-719	-16366	-151	196	-77	2637	-354	-4776	-177.489716	6.771017	-2.211886
D:	610.38	-1952	-794	-16422	-35	111	32	2637	-354	-4776	-177.237152	6.219658	-2.499273
D:	613.89	-1812	-754	-16610	-35	101	41	2637	-354	-4776	-177.406113	6.219658	-2.261739
D:	617.51	-1918	-833	-16058	-113	101	41	2629	-384	-4963	-177.035706	6.802396	-2.013302
D:	621.45	-1578	-903	-16296	-14	222	-219	2629	-384	-4963	-176.833572	5.522655	-2.013302
D:	625.06	-1822	-797	-16231	-14	186	-388	2629	-384	-4963	-177.194061	6.397431	-2.533558
D:	628.63	-1816	-819	-16520	-85	114	-279	2629	-384	-4963	-177.167038	6.265737	-2.499615
D:	632.34	-1707	-552	-16634	-59	81	-499	2629	-384	-4963	-178.104584	5.856219	-4.015163
D:	636.13	-1785	-731	-16136	-30	123	-375	2629	-384	-4969	-177.411346	6.306290	-2.875460
D:	639.72	-1785	-731	-16136	-47	66	-334	2630	-351	-4969	-177.411346	5.764558	-1.760744
D:	643.28	-1664	-845	-16462	-98	35	-224	2630	-351	-4969	-177.066788	6.237401	-1.561169
D:	646.84	-1776	-865	-16227	-143	122	-254	2630	-351	-4969	-176.953888	5.703065	-2.247113
D:	650.64	-1672	-770	-16725	-6	103	-257	2630	-351	-4969	-177.369247	5.587447	-2.203827
D:	654.28	-1625	-773	-16593	-6	-25	-263	2630	-351	-4969	-177.337967	6.195878	-2.662906
D:	657.90	-1776	-672	-16346	-65	159	-143	2630	-351	-4969	-177.651077	6.989083	-2.604652
D:	661.67	-2012	-753	-16399	-109	159	-143	2624	-374	-4962	-177.376205	6.987602	-2.644733
D:	665.19	-1830	-678	-16339	-103	101	-82	2624	-374	-4962	-177.629074	6.385345	-3.041703
D:	669.02	-1658	-804	-16226	-84	147	-226	2624	-374	-4962	-177.168533	5.827402	-2.352287
D:	672.67	-1884	-762	-16287	-132	55	-157	2624	-374	-4962	-177.326569	6.591415	-2.553290
D:	676.19	-1862	-821	-16327	-72	143	-154	2624	-374	-4962	-177.126526	6.498195	-2.246017
D:	679.80	-1734	-851	-16558	-71	170	-198	2648	-341	-4787	-177.126526	5.970736	-1.734197
D:	683.50	-1734	-851	-16558	-94	237	-322	2648	-341	-4787	-177.063080	6.282499	-2.136249
D:	687.17	-1790	-757	-16242	-112	218	-444	2648	-341	-4787	-177.336746	6.260036	-2.416742
D:	690.78	-1789	-707	-16294	-94	116	-368	2648	-341	-4787	-177.520721	6.237283	-2.276032
D:	694.38	-1798	-740	-16435	-151	126	-288	2648	-341	-4787	-177.427185	6.122113	-2.182566
D:	697.97	-1751	-753	-16308	-151	282	-269	2648	-341	-4787	-177.361557	6.122113	-3.057728
D:	701.99	-1621	-686	-16529	-119	266	-294	2639	-372	-4956	-177.628662	6.383750	-2.941643
D:	705.87	-1840	-692	-16432	-118	135	-215	2639	-372	-4956	-177.593765	6.383750	-2.301481
D:	709.46	-1667	-818	-16464	-11	135	-215	2639	-372	-4956	-177.160858	5.774660	-2.309141
D:	713.31	-1637	-791	-16534	-108	164	-280	2639	-372	-4956	-177.266235	5.648068	-2.476905
D:	717.18	-1721	-740	-16360	-155	145	-255	2639	-372	-4956	-177.415375	5.999266	-1.836892
D:	721.12	-1657	-1011	-16062	-128	135	-254	2630	-331	-5090	-176.403549	5.878576	-0.193444
D:	724.77	-1795	-707	-16291	-112	230	-318	2630	-331	-5090	-177.520264	6.282008	-1.986070
D:	728.65	-1565	-764	-16221	-124	155	-265	2630	-331	-5090	-177.308609	5.504930	-1.680631
D:	732.58	-1889	-755	-16287	-128	203	-256	2630	-331	-5090	-177.351120	6.608886	-1.699851
D:	736.79	-1742	-715	-16313	-103	186	-131	2630	-331	-5090	-177.495575	6.089665	-2.733113
D:	740.71	-1842	-699	-16465	-170	156	-187	2626	-368	-4973	-177.574280	6.377838	-2.836603
D:	744.54	-1815	-739	-16396	-113	156	-179	2626	-368	-4973	-177.424545	6.310626	-2.605670
D:	748.15	-1576	-744	-16576	-152	169	-243	2626	-368	-4973	-177.435287	5.425927	-2.684044
D:	752.04	-1810	-769	-16414	-72	193	-216	2626	-368	-4973	-177.435287	6.286026	-2.447020
D:	755.80	-1886	-804	-16141	-100	42	-201	2626	-368	-4973	-177.322876	6.656540	-2.159515
D:	759.63	-1886	-804	-16141	-161	132	-139	2641	-329	-4833	-177.153625	6.074625	-1.947484
D:	763.18	-1752	-756	-16446	-35	95	-213	2641	-329	-4833	-177.373276	6.032529	-1.938655
D:	766.88	-1742	-759	-16467	-104	206	-211	2641	-329	-4833	-177.366226	6.196788	-1.972157
D:	770.57	-1794	-753	-16506	-90	178	-184	2641	-329	-4833	-177.393234	6.013436	-2.478500
D:	774.30	-1777	-674	-16856	-90	185	-125	2641	-329	-4833	-177.715439	6.485037	-2.457852
D:	778.30	-1848	-648	-16245	-156	132	-108	2641	-329	-4833	-177.720963	5.847085	-2.646771
D:	782.02	-1683	-703	-16420	-7	141	-93	2649	-357	-4945	-177.553696	5.847060	-2.464921
D:	785.80	-1768	-735	-16466	-98	141	-93	2649	-357	-4945	-177.449402	6.122657	-2.378520
D:	789.62	-1655	-760	-16561	-60	279	-167	2649	-357	-4945	-177.377716	5.701033	-2.318534
D:	793.14	-1906	-658	-16209	-85	227	-93	2649	-357	-4945	-177.680603	6.701284	-2.785413
D:	796.90	-1699	-644	-16277	-104	289	-141	2649	-357	-4945	-177.739502	5.954528	-2.883300
D:	800.62	-1727	-768	-16501	-123	208	-222	2649	-357	-5004	-177.340454	5.968604	-1.931337
D:	804.46	-1815	-729	-16233	-139	281	-208	2636	-339	-5004	-177.433884	6.373520	-2.058491
D:	808.12	-1842	-701	-16337	-125	202	-216	2636	-339	-5004	-177.548264	6.427268	-2.235701
D:	811.92	-1830	-703	-16319	-133	116	-272	2636	-339	-5004	-177.548264	6.392683	-2.222365
D:	815.54	-1830	-703	-16319	-114	133	-181	2636	-339	-5004	-177.538528	5.921448	-2.648000
D:	819.17	-1724	-643	-16610	-86	216	-160	2636	-339	-5004	-177.788330	5.582077	-2.002652
D:	822.74	-1600	-752	-16354	-107	166	-195	2636	-339	-5004	-177.372482	6.698588	-3.155017
D:	826.39	-1911	-638	-16259	-76	153	-180	2618	-371	-4981	-177.758118	5.582810	-2.807945
D:	829.93	-1616	-727	-16517	-76	176	-109	2618	-371	-4981	-177.484970	5.582747	-2.692977
D:	833.57	-1797	-727	-16261	-111	176	-109	2618	-371	-4981	-177.445358	6.300101	-2.716619
D:	837.17	-1734	-746	-16582	-104	143	-38	2618	-371	-4981	-177.429306	5.963980	-2.691052
D:	840.74	-1581	-755	-16358	-73	60	-18	2618	-371	-4981	-177.362625	5.514816	-2.477245
D:	844.46	-1760	-726	-16440	-99	94	-114	2626	-360	-4904	-177.476654	6.104856	-2.618168
D:	848.06	-1531	-830	-16816	-131	130	-120	2626	-360	-4904	-177.179535	5.195972	-2.204515
D:	851.89	-1919	-523	-16233	-134	11	-148	2626	-360	-4904	-178.159927	6.738721	-3.627964
D:	855.66	-1919	-523	-16233	-169	67	-166	2626	-360	-4904	-178.159927	6.428133	-2.659155
D:	859.21	-1845	-711	-16361	-74	148	-216	2626	-360	-4904	-177.516891	5.731308	-2.975943
D:	863.00	-1650	-665	-16427	-130	108	-225	2641	-341	-4989	-177.687042	6.472532	-2.684048
D:	866.61	-1846	-624	-16260	-150	91	-172	2641	-341	-4989	-177.807510	5.582881	-1.941274
D:	870.30	-1583	-763	-16177	-150	160	-230	2641	-341	-4989	-177.304840	6.292922	-2.005047
D:	873.90	-1819	-759	-16478	-110	114	-150	2641	-341	-4989	-177.367966	6.292922	-2.495646
D:	877.49	-1899	-666	-16480	-21	114	-150	2641	-341	-4989	-177.691025	6.568115	-2.522027
D:	881.08	-1751	-645	-16216	-104	134	-103	2641	-341	-4989	-177.727478	6.158257	-2.635357
D:	884.81	-1824	-597	-16237	-197	192	-147	2620	-351	-5165	-177.899536	6.405406	-2.897340
D:	888.64	-1765	-678	-16305	-59	232	-131	2620	-351	-5165	-177.624115	6.173044	-2.465429
D:	892.40	-1741	-719	-16556	-2	142	-36	2620	-351	-5165	-177.518539	5.997626	-2.303709
D:	896.00	-1837	-680	-16526	-121	269	-130	2620	-351	-5165	-177.518539	6.337723	-2.495095
D:	899.52	-1837	-680	-16526	25	137	-60	2620	-351	-5165	-177.649002	5.969280	-2.629770
D:	903.12	-1704	-651	-16284	-8	146	77	2639	-350	-4966	-177.715897	5.245719	-2.340462
D:	906.65	-1531	-751	-16659	-39	50	-32	2639	-350	-4966	-177.424042	6.280037	-2.884318
D:	910.22	-1776	-618	-16127	-39	-6	-40	2639	-350	-4966	-177.810684	5.749828	-2.506270
D:	913.81	-1679	-715	-16660	-65	-6	-40	2639	-350	-4966	-177.547760	5.749768	-1.813098
D:	917.43	-1665	-821	-16260	-47	107	-14	2639	-350	-4966	-177.114700	5.839410	-2.322479
D:	921.39	-1864	-725	-16317	33	98	25	2639	-350	-4966	-177.461136	6.510853	-2.656341
D:	925.08	-1637	-870	-16606	-18	61	-11	2636	-366	-4916	-177.006210	5.622466	-1.996920
D:	928.67	-1856	-568	-16390	-8	90	47	2636	-366	-4916	-178.020447	6.456987	-3.525939
D:	932.21	-1535	-758	-16436	14	51	33	2636	-366	-4916	-177.364731	5.330048	-2.584630
D:	936.01	-1731	-753	-16181	-69	103	-13	2636	-366	-4916	-177.340820	6.099755	-2.496088
D:	939.75	-1731	-753	-16181	-16	33	8	2636	-366	-4916	-177.340820	6.355665	-2.811486
D:	943.38	-1831	-703	-16424	-12	53	64	2620	-355	-4994	-177.554291	6.511346	-2.582017
D:	946.92	-1820	-676	-15932	-12	35	18	2620	-355	-4994	-177.575623	6.238923	-2.261293
D:	950.64	-1785	-753	-16311	-190	97	-84	2620	-355	-4994	-177.362045	6.411082	-2.356366
D:	954.29	-1852	-741	-16466	-190	202	-138	2620	-355	-4994	-177.428574	6.796335	-2.300473
D:	958.06	-1938	-737	-16245	-95	89	-124	2620	-355	-4994	-177.407639	6.796409	-1.950538
D:	961.95	-1958	-804	-16322	-143	52	-118	2620	-355	-4994	-177.185211	6.832554	-2.088129
D:	965.57	-1790	-775	-16138	-67	52	-118	2620	-355	-4994	-177.255814	6.322240	-1.735178
D:	969.21	-1784	-627	-16717	-57	146	-356	2634	-342	-5112	-177.857285	6.087352	-2.718778
D:	972.86	-1832	-566	-16697	-109	98	-287	2634	-342	-5112	-178.063766	6.258083	-3.038630
D:	976.41	-1662	-645	-16256	-81	130	-193	2634	-342	-5112	-177.733078	5.833204	-2.535135
D:	980.02	-1653	-676	-16597	-19	209	-101	2634	-342	-5112	-177.733078	5.683177	-2.446961
D:	983.64	-1653	-676	-16597	-33	84	-49	2634	-342	-5112	-177.672867	6.053516	-3.108704
D:	987.28	-1726	-542	-16267	49	124	-138	2628	-344	-4923	-178.096909	5.618967	-2.444489
D:	990.91	-1638	-715	-16634	5	32	2	2628	-344	-4923	-177.543930	6.265854	-2.894905
D:	994.64	-1773	-605	-16137	18	56	-96	2628	-344	-4923	-177.858154	5.003831	-2.310463
D:	998.19	-1463	-749	-16693	18	58	24	2628	-344	-4923	-177.436142	5.003831	-2.566931
D:	1001.96	-1872	-670	-16353	-40	36	-24	2628	-344	-4923	-177.659088	6.525239	-2.761137
D:	1005.70	-1872	-638	-16439	58	36	-24	2628	-344	-4923	-177.782715	6.491949	-2.659288
D:	1009.42	-1794	-707	-16509	100	45	-5	2644	-364	-5053	-177.553055	6.196430	-2.686281
D:	1013.30	-1680	-563	-16497	36	30	73	2644	-364	-5053	-178.050659	5.811579	-3.485710
D:	1016.93	-1682	-983	-16634	139	111	-2	2644	-364	-5053	-176.623215	5.764202	-1.191178
D:	1020.73	-1845	-872	-16466	59	19	20	2644	-364	-5053	-176.973801	6.384588	-1.728195
D:	1024.36	-1627	-712	-16446	72	53	29	2644	-364	-5053	-177.526260	5.644792	-2.654970
D:	1027.94	-1775	-634	-16311	138	77	13	2638	-359	-4991	-177.526260	6.206151	-2.983871
D:	1031.49	-1775	-634	-16311	32	16	80	2638	-359	-4991	-177.779297	5.354862	-2.811879
D:	1035.31	-1543	-682	-16448	-2	75	43	2638	-359	-4991	-177.630905	6.131012	-3.005192
D:	1039.07	-1750	-630	-16280	77	0	85	2638	-359	-4991	-177.789124	6.204614	-2.995193
D:	1042.80	-1769	-630	-16260	49	58	83	2638	-359	-4991	-177.786407	5.616700	-2.646758
D:	1046.60	-1621	-709	-16468	48	-18	-20	2638	-359	-4991	-177.539993	6.387901	-2.094025
D:	1050.29	-1813	-755	-16177	48	-19	72	2641	-358	-5161	-177.333099	5.826563	-2.189293
D:	1054.13	-1668	-751	-16329	16	31	55	2641	-358	-5161	-177.371948	5.826563	-3.098484
D:	1057.77	-1846	-586	-16390	16	31	55	2641	-358	-5161	-177.957596	6.422243	-2.058803
D:	1061.44	-1597	-783	-16464	-3	12	46	2641	-358	-5161	-177.282379	5.534276	-2.033717
D:	1065.14	-1725	-711	-16432	0	129	-252	2641	-358	-5161	-177.527634	5.987466	-2.341515
D:	1068.81	-1704	-617	-16231	-88	69	-11	2627	-343	-4965	-177.828247	5.989085	-2.818074
D:	1072.41	-1654	-710	-16243	55	44	42	2627	-343	-4965	-177.502365	5.808964	-2.312177
D:	1076.10	-1784	-636	-16288	-5	-81	23	2627	-343	-4965	-177.769135	6.246067	-2.706306
D:	1079.79	-1564	-713	-16683	11	23	89	2627	-343	-4965	-177.769135	5.351020	-2.430094
D:	1083.38	-1564	-713	-16683	54	-132	35	2627	-343	-4965	-177.558014	5.970703	-2.709397
D:	1087.04	-1721	-645	-16443	-49	-3	22	2640	-361	-5060	-177.758881	6.314212	-2.939344
D:	1090.61	-1790	-631	-16165	8	50	76	2640	-361	-5060	-177.769836	5.759928	-2.700518
D:	1094.12	-1679	-700	-16631	8	-12	105	2640	-361	-5060	-177.595078	6.267540	-2.857962
D:	1097.65	-1782	-648	-16213	100	-12	105	2640	-361	-5060	-177.716461	6.267526	-2.857962
D:	1101.30	-1624	-685	-16390	142	-21	17	2640	-361	-5060	-177.612030	5.653934	-2.735583
D:	1104.90	-1789	-624	-16429	84	66	69	2640	-361	-5060	-177.830093	6.210352	-2.702282
D:	1108.70	-1765	-739	-16245	48	17	53	2648	-341	-5027	-177.400589	6.194622	-2.023295
D:	1112.47	-1777	-729	-16204	98	65	101	2648	-341	-5027	-177.429306	6.252203	-2.065700
D:	1116.29	-1776	-590	-16325	23	58	82	2648	-341	-5027	-177.935425	6.204966	-2.869262
D:	1119.86	-1607	-757	-16563	-30	39	59	2648	-341	-5027	-177.935425	5.536110	-2.038914
D:	1123.41	-1607	-757	-16563	43	53	43	2648	-341	-5027	-177.388382	6.253067	-2.338475
D:	1127.07	-1795	-687	-16368	142	-4	115	2648	-341	-5027	-177.601807	6.369630	-2.386748
D:	1130.61	-1845	-683	-16514	18	109	7	2648	-341	-5027	-177.636902	6.367509	-2.339140
D:	1134.16	-1830	-707	-16384	18	105	112	2637	-341	-4903	-177.534363	6.225053	-2.922044
D:	1137.82	-1758	-591	-16107	19	105	112	2637	-341	-4903	-177.903885	6.224925	-2.210783
D:	1141.50	-1605	-739	-16388	97	45	159	2637	-341	-4903	-177.423279	5.588090	-2.165391
D:	1145.30	-1858	-632	-16556	-21	17	109	2637	-341	-4903	-177.819122	6.398804	-2.778075
D:	1148.91	-1768	-715	-16288	28	20	139	2637	-341	-4903	-177.491714	6.189252	-2.653653
D:	1152.86	-1761	-602	-16245	45	77	132	2644	-364	-4949	-177.882965	6.182824	-3.266109
D:	1156.67	-1592	-750	-16392	69	92	180	2644	-364	-4949	-177.385559	5.541603	-2.529587
D:	1160.28	-1610	-758	-16602	52	50	143	2644	-364	-4949	-177.391083	5.533445	-2.538959
D:	1163.82	-1766	-735	-16327	-21	73	138	2644	-364	-4949	-177.391083	6.167347	-2.554837
D:	1167.55	-1766	-735	-16327	62	-11	155	2644	-364	-4949	-177.427658	5.194179	-2.537124
D:	1171.45	-1492	-753	-16396	22	-66	75	2633	-358	-5088	-177.375717	6.349665	-2.944856
D:	1175.10	-1817	-623	-16317	84	2	186	2633	-358	-5088	-177.818695	5.888574	-2.857130
D:	1178.64	-1669	-639	-16170	-40	-46	80	2633	-358	-5088	-177.742218	6.035718	-2.342018
D:	1182.45	-1753	-745	-16563	-38	-121	120	2633	-358	-5088	-177.429810	6.749188	-2.479050
D:	1186.21	-1937	-703	-16353	-38	-10	83	2633	-358	-5088	-177.543671	6.070990	-2.474364
D:	1189.81	-1744	-713	-16383	64	-10	83	2633	-358	-5088	-177.513260	6.070832	-2.480715
D:	1193.42	-1758	-672	-16441	-2	-86	34	2635	-339	-4955	-177.664658	6.098448	-2.500142
D:	1197.11	-1660	-689	-16335	105	-24	24	2635	-339	-4955	-177.589966	5.797659	-2.381595
D:	1200.75	-1753	-733	-16866	130	97	100	2635	-339	-4955	-177.516708	5.928459	-2.257626
D:	1204.64	-1727	-729	-16285	62	-40	69	2635	-339	-4955	-177.442093	6.047673	-2.132948
D:	1208.31	-1614	-795	-16407	134	30	139	2635	-339	-4955	-177.231140	5.611884	-1.824754
D:	1212.07	-1790	-654	-16282	28	-29	163	2628	-349	-4971	-177.705078	6.268922	-2.706738
D:	1215.71	-1790	-654	-16282	90	-49	169	2628	-349	-4971	-177.705078	5.795567	-3.386372
D:	1219.58	-1670	-544	-16445	-233	-68	220	2628	-349	-4971	-178.110611	6.065360	-2.511627
D:	1223.38	-1735	-693	-16314	235	-16	157	2628	-349	-4971	-177.572830	6.207832	-2.457887
D:	1227.29	-1776	-701	-16313	97	1	214	2628	-349	-4971	-177.544632	5.530007	-2.644103
D:	1231.00	-1593	-681	-16440	135	20	240	2645	-367	-4934	-177.633209	6.223255	-3.016077
D:	1234.72	-1795	-667	-16448	166	-59	229	2645	-367	-4934	-177.683044	6.159023	-2.997869
D:	1238.42	-1773	-670	-16417	19	53	293	2645	-367	-4934	-177.668213	6.478323	-2.952074
D:	1241.98	-1874	-677	-16490	19	-40	219	2645	-367	-4934	-177.654266	6.478323	-3.504191
D:	1245.48	-1848	-566	-16257	110	-40	219	2645	-367	-4934	-178.011276	6.481506	-3.555638
D:	1249.16	-1702	-1015	-16434	92	73	171	2645	-367	-4934	-176.470993	5.901810	-1.037618
D:	1253.08	-1728	-733	-16468	118	37	182	2647	-359	-4889	-177.456650	5.984464	-2.572886
D:	1256.80	-1700	-786	-16303	74	22	161	2647	-359	-4889	-177.245026	5.946338	-2.245698
D:	1260.38	-1675	-706	-16162	169	-33	212	2647	-359	-4889	-177.503983	5.911482	-2.651464
D:	1263.96	-1711	-653	-16329	10	124	161	2647	-359	-4889	-177.503983	5.977223	-2.975559
D:	1267.55	-1711	-653	-16329	-44	135	126	2647	-359	-4889	-177.715195	5.823411	-3.139950
D:	1271.09	-1669	-626	-16353	-23	99	102	2639	-351	-5123	-177.813004	6.003729	-2.660172
D:	1274.65	-1718	-650	-16323	104	-40	161	2639	-351	-5123	-177.724869	6.302619	-2.196192
D:	1278.58	-1808	-730	-16354	64	54	188	2639	-351	-5123	-177.449402	5.687913	-2.317810
D:	1282.55	-1653	-725	-16581	24	77	194	2639	-351	-5123	-177.501602	6.333158	-1.888971
D:	1286.12	-1814	-783	-16326	24	83	202	2639	-351	-5123	-177.259415	5.775366	-2.396639
D:	1289.66	-1695	-717	-16744	-115	83	202	2639	-351	-5123	-177.553268	5.775291	-2.395617
D:	1293.72	-1767	-693	-16287	-27	-23	49	2639	-351	-5123	-177.568817	6.186512	-2.733278
D:	1297.77	-1820	-645	-16249	-12	-23	49	2625	-355	-5117	-177.732086	6.386086	-2.420091
D:	1301.60	-1863	-706	-16405	34	53	130	2625	-355	-5117	-177.540985	6.473171	-2.725323
D:	1305.48	-1804	-651	-16336	-18	29	103	2625	-355	-5117	-177.723160	6.296922	-2.725323
D:	1309.09	-1685	-735	-16763	61	-55	0	2625	-355	-5117	-177.494629	5.734730	-2.392177
D:	1312.99	-1763	-673	-16130	78	-80	-52	2625	-355	-5117	-177.616028	6.232440	-3.055048
D:	1316.61	-1778	-655	-16169	151	-33	-13	2621	-375	-4961	-177.685471	6.270316	-3.161430
D:	1320.51	-1569	-708	-16283	123	-27	48	2621	-375	-4961	-177.515533	5.498922	-2.952671
D:	1324.37	-1724	-717	-16415	68	69	44	2621	-375	-4961	-177.504181	5.990067	-2.896780
D:	1327.97	-1645	-719	-16712	60	80	75	2621	-375	-4961	-177.504181	5.616648	-2.985452
D:	1331.62	-1645	-719	-16712	97	71	91	2621	-375	-4961	-177.541718	6.133216	-3.008669
D:	1335.88	-1749	-713	-16209	221	37	22	2637	-387	-4907	-177.486542	6.152837	-3.108072
D:	1339.77	-1751	-670	-16818	157	97	105	2637	-387	-4907	-177.486542	5.939412	-3.496707
D:	1343.46	-1751	-670	-16818	198	73	22	2637	-387	-4907	-177.723877	6.582090	-3.322163
D:	1347.06	-1879	-670	-16271	134	68	110	2637	-387	-4907	-177.647278	6.221413	-3.121197
D:	1350.85	-1797	-721	-16469	122	11	154	2637	-387	-4907	-177.498474	6.263678	-2.947815
D:	1354.73	-1801	-749	-16392	136	58	92	2637	-387	-4907	-177.389023	5.703847	-2.289190
D:	1358.43	-1632	-698	-16325	12	42	283	2646	-334	-4892	-177.556946	6.408185	-2.047065
D:	1362.21	-1847	-740	-16429	12	46	185	2646	-334	-4892	-177.426239	6.245159	-2.444244
D:	1365.86	-1784	-662	-16286	-60	126	89	2646	-334	-4892	-177.677551	6.246433	-1.861929
D:	1369.52	-1838	-786	-16651	-61	126	89	2646	-334	-4892	-177.302628	6.292258	-1.861929
D:	1373.05	-1716	-755	-16533	-101	89	101	2646	-334	-4892	-177.390564	5.919699	-2.351231
D:	1376.78	-1804	-741	-16170	17	-26	34	2639	-363	-5111	-177.381454	6.359426	-2.309420
D:	1380.51	-1768	-718	-16305	135	-35	24	2639	-363	-5111	-177.483810	6.182811	-2.485025
D:	1384.04	-1835	-667	-16341	-22	5	53	2639	-363	-5111	-177.667847	6.402046	-2.765346
D:	1388.96	-1870	-688	-16610	2	9	58	2639	-363	-5111	-177.633347	6.418202	-2.959776
D:	1393.99	-1826	-638	-16461	-29	79	9	2639	-363	-5111	-177.785660	6.496844	-3.003510
D:	1398.54	-1841	-688	-16152	-21	76	94	2640	-374	-4866	-177.566177	6.014016	-3.063530
D:	1403.16	-1761	-707	-16701	31	0	38	2640	-374	-4866	-177.581192	6.486603	-2.990605
D:	1407.90	-1742	-695	-16530	3	36	63	2640	-374	-4866	-177.597672	6.010768	-3.089336
D:	1411.86	-1678	-770	-16547	3	34	-10	2640	-374	-4866	-177.597672	5.784416	-2.706594
D:	1415.68	-1678	-770	-16547	-46	45	56	2646	-392	-4918	-177.340942	6.347061	-2.949480
D:	1419.32	-1821	-759	-16354	-12	31	26	2646	-392	-4918	-177.347992	5.478011	-3.441247
D:	1422.90	-1560	-678	-16253	22	102	-20	2646	-392	-4918	-177.616501	6.444868	-3.946552
D:	1426.52	-1842	-571	-16297	56	41	-67	2646	-392	-4918	-177.998581	6.009254	-3.594404
D:	1430.06	-1732	-649	-16441	56	121	80	2646	-392	-4918	-177.744690	5.771244	-3.515985
D:	1433.61	-1672	-671	-16530	70	121	80	2646	-392	-4918	-177.680710	5.771241	-2.580827
D:	1437.47	-1736	-695	-16228	57	44	-21	2646	-363	-5129	-177.552917	6.100659	-2.598214
D:	1441.31	-1717	-735	-16448	138	150	-24	2637	-363	-5129	-177.446594	5.953775	-2.408228
D:	1444.98	-1773	-645	-16249	71	140	12	2637	-363	-5129	-177.732086	6.222481	-2.868872
D:	1448.69	-1831	-653	-16256	131	59	40	2637	-363	-5129	-177.704926	6.421498	-2.810268
D:	1452.29	-1835	-699	-16346	110	40	49	2637	-363	-5129	-177.556610	6.399589	-2.573671
D:	1456.03	-1821	-643	-16150	97	60	55	2637	-363	-5129	-177.725266	6.428378	-2.842398
D:	1459.73	-1821	-643	-16150	64	-41	-4	2637	-360	-5110	-177.725266	5.816142	-2.705193
D:	1463.38	-1651	-670	-16195	60	-27	-104	2637	-360	-5110	-177.636215	6.133284	-2.753827
D:	1467.01	-1751	-661	-16282	69	-17	-25	2637	-360	-5110	-177.680481	5.909551	-2.459790
D:	1470.62	-1707	-724	-16476	18	23	49	2637	-360	-5110	-177.489120	6.089972	-1.999333
D:	1474.15	-1727	-789	-16168	18	27	55	2637	-360	-5110	-177.211395	6.395688	-3.081347
D:	1477.77	-1820	-597	-16218	2	27	55	2637	-360	-5110	-177.897095	6.398891	-2.439255
D:	1481.39	-1771	-723	-16463	20	20	22	2647	-362	-5152	-177.490601	6.134269	-2.391030
D:	1485.24	-1963	-605	-16218	-8	71	40	2647	-362	-5152	-177.868866	6.896868	-2.991059
D:	1488.99	-1552	-807	-16567	-82	-5	94	2647	-362	-5152	-177.216492	5.345717	-2.038182
D:	1492.56	-1774	-731	-16427	-97	89	-43	2647	-362	-5152	-177.457260	6.157788	-2.383776
D:	1496.30	-1733	-709	-16346	-98	-13	-30	2647	-362	-5152	-177.521606	6.046417	-2.950244
D:	1500.08	-1643	-795	-16271	-145	-25	33	2635	-376	-4933	-177.207977	5.759369	-2.475857
D:	1503.74	-1643	-795	-16271	-174	22	-92	2635	-376	-4933	-177.207977	6.314561	-3.367930
D:	1507.39	-1808	-628	-16327	-166	-12	-91	2635	-376	-4933	-177.802505	5.274356	-2.706500
D:	1510.97	-1530	-773	-16556	-81	120	-44	2635	-376	-4933	-177.332031	6.579382	-2.944884
D:	1514.51	-1845	-687	-15982	-121	118	50	2635	-376	-4933	-177.543839	6.115012	-3.685959
D:	1518.34	-1768	-579	-16493	-39	50	-48	2635	-376	-4933	-177.994659	6.036466	-2.054357
D:	1522.08	-1770	-827	-16718	-39	118	-79	2636	-366	-5105	-177.173233	6.036466	-2.262099
D:	1525.81	-1843	-768	-16351	-65	118	-79	2636	-366	-5105	-177.316055	6.424108	-2.716108
D:	1529.42	-1768	-708	-16731	-133	101	-84	2636	-366	-5105	-177.582138	6.027004	-2.691276
D:	1533.15	-1823	-640	-16301	-199	94	-85	2636	-366	-5105	-177.756897	6.376397	-2.971013
D:	1537.22	-1776	-751	-16469	-60	115	-17	2636	-366	-5105	-177.394302	6.148774	-3.481909
D:	1541.90	-1858	-638	-16250	-82	108	16	2652	-390	-4970	-177.756866	6.523616	-3.566116
D:	1546.86	-1879	-629	-16420	-14	206	243	2652	-390	-4970	-177.811493	5.943376	-3.401961
D:	1551.50	-1912	-524	-16224	5	199	-28	2652	-390	-4970	-178.155380	6.718038	-4.079020
D:	1556.60	-1672	-650	-16404	-25	69	-15	2652	-390	-4970	-177.736099	5.815491	-2.888466
D:	1561.47	-1846	-655	-16456	61	123	35	2639	-359	-5006	-177.725891	6.395730	-2.621624
D:	1565.71	-1765	-689	-16133	116	-8	30	2639	-359	-5006	-177.559769	6.238047	-2.788516
D:	1569.46	-1822	-688	-16818	23	62	11	2639	-359	-5006	-177.662643	6.178154	-2.788516
D:	1573.07	-1916	-612	-16332	51	26	43	2639	-359	-5006	-177.859222	6.686657	-3.059291
D:	1576.72	-1795	-707	-16522	-19	93	-69	2639	-359	-5006	-177.554977	6.195025	-3.151728
D:	1580.42	-1744	-528	-16263	-43	86	6	2645	-392	-5068	-178.145721	6.117834	-4.100720
D:	1584.06	-1845	-616	-16231	74	22	-10	2645	-392	-5068	-177.831787	6.480619	-3.566272
D:	1587.61	-1845	-616	-16231	-2	-110	37	2645	-392	-5068	-177.831787	6.119749	-2.911660
D:	1591.16	-1805	-765	-16818	-25	-9	43	2645	-392	-5068	-177.400818	6.284628	-3.518616
D:	1594.74	-1818	-638	-16496	-6	20	20	2645	-392	-5068	-177.790375	6.003458	-3.543906
D:	1598.30	-1733	-637	-16467	250	51	14	2645	-392	-5068	-177.789948	6.401082	-2.007505
D:	1602.19	-1828	-715	-16279	19	-42	-15	2645	-322	-4803	-177.490326	6.401082	-1.688825
D:	1605.80	-1821	-763	-16059	-19	-42	-15	2653	-322	-4803	-177.285004	6.462347	-2.255506
D:	1609.38	-1585	-690	-16582	-64	-31	-8	2653	-322	-4803	-177.622452	5.455530	-2.192265
D:	1613.05	-1885	-737	-16295	39	32	-21	2653	-322	-4803	-177.415588	6.592142	-1.880393
D:	1616.61	-1893	-648	-16331	-65	21	70	2653	-322	-4803	-177.733002	6.606947	-2.358077
D:	1620.18	-1774	-749	-16420	-35	11	-21	2653	-322	-4803	-177.393494	6.160086	-1.866884
D:	1623.79	-1773	-652	-16263	-10	93	45	2649	-391	-5080	-177.393494	6.217070	-3.363805
D:	1627.43	-1773	-652	-16263	-54	250	23	2649	-391	-5080	-177.709427	6.020686	-3.154325
D:	1631.18	-1731	-698	-16398	-30	123	25	2649	-391	-5080	-177.567856	6.064742	-2.763348
D:	1634.93	-1766	-777	-16604	-31	99	0	2649	-391	-5080	-177.325958	6.166753	-3.009077
D:	1638.51	-1781	-725	-16468	-6	121	-35	2649	-391	-5080	-177.484451	5.673425	-3.310200
D:	1642.36	-1646	-682	-16555	-90	44	2	2649	-391	-5080	-177.646225	6.487691	-2.426796
D:	1645.99	-1862	-753	-16357	-90	127	33	2641	-361	-4911	-177.369461	6.487691	-1.162685
D:	1649.55	-1757	-1004	-16597	-26	127	33	2641	-361	-4911	-176.543442	6.032200	-1.152510
D:	1653.14	-1848	-697	-16523	-51	154	23	2641	-361	-4911	-177.589722	6.376237	-2.774847
D:	1656.74	-1846	-698	-16226	-116	202	-74	2641	-361	-4911	-177.542053	6.484767	-2.693605
D:	1660.28	-1609	-714	-16578	-89	112	40	2641	-361	-4911	-177.539078	5.538616	-2.754998
D:	1663.83	-1765	-630	-16257	21	89	11	2645	-386	-5029	-177.539078	6.191825	-3.444160
D:	1667.74	-1859	-630	-16218	-1	243	-76	2645	-386	-5029	-177.780670	6.534338	-3.405542
D:	1672.93	-1820	-681	-16669	-63	142	-104	2645	-386	-5029	-177.665771	6.226172	-3.044289
D:	1678.10	-1781	-712	-16484	-5	10	14	2645	-386	-5029	-177.531967	5.908689	-2.867521
D:	1682.63	-1711	-749	-16516	-23	16	248	2636	-349	-5153	-177.408661	6.092358	-2.067097
D:	1687.17	-1735	-739	-16239	24	136	-14	2636	-349	-5153	-177.399643	5.513906	-2.423684
D:	1691.68	-1665	-797	-16568	-49	113	-54	2636	-349	-5153	-177.251144	5.732253	-1.843201
D:	1696.17	-1733	-584	-16263	-68	134	-89	2636	-349	-5153	-177.948654	6.078827	-2.960999
D:	1700.19	-1672	-739	-16605	-100	36	-38	2636	-349	-5153	-177.456985	5.744401	-2.180746
D:	1703.86	-1998	-715	-16400	-224	-24	-59	2645	-392	-5054	-177.456985	6.939750	-3.032071
D:	1707.44	-1998	-715	-16400	-29	2	-19	2645	-392	-5054	-177.508865	6.263284	-3.460941
D:	1711.04	-1826	-656	-16625	-47	-10	-26	2645	-392	-5054	-177.745605	6.097029	-3.301809
D:	1714.66	-1765	-683	-16510	-4	16	33	2645	-392	-5054	-177.636337	6.299352	-3.229885
D:	1718.41	-1819	-691	-16464	-118	130	-20	2645	-392	-5054	-177.601913	5.432026	-3.316998
D:	1722.30	-1581	-695	-16612	-118	29	-21	2645	-392	-5054	-177.609543	6.172478	-2.506062
D:	1726.02	-1768	-708	-16333	-59	28	-101	2657	-365	-5186	-177.523132	6.172478	-2.511158
D:	1729.67	-1716	-715	-16454	-95	28	-101	2657	-365	-5186	-177.517044	5.948499	-2.511158
D:	1733.28	-1735	-690	-16577	-121	49	-30	2657	-365	-5186	-177.621750	5.970044	-2.680311
D:	1737.14	-1813	-676	-16367	35	136	29	2657	-365	-5186	-177.640106	6.315825	-2.685424
D:	1740.82	-1737	-965	-16572	-41	260	-119	2657	-365	-5186	-176.672592	5.973760	-1.887140
D:	1744.41	-1810	-591	-16488	-141	151	-240	2639	-395	-5000	-177.952408	6.260859	-3.892027
D:	1748.05	-1688	-629	-16248	-63	101	-255	2639	-395	-5000	-177.952408	5.926931	-3.665229
D:	1751.73	-1840	-761	-16269	-131	107	-214	2639	-395	-5000	-177.788284	6.445851	-2.892797
D:	1755.54	-1840	-761	-16269	-83	254	-251	2639	-395	-5000	-177.327118	6.258301	-3.663899
D:	1759.20	-1790	-626	-16311	-43	202	-259	2639	-395	-5000	-177.807373	6.087712	-2.267205
D:	1762.90	-1769	-894	-16563	27	164	-401	2639	-395	-4809	-176.915634	5.705254	-3.756444
D:	1766.46	-1634	-649	-16343	-61	67	-379	2639	-395	-4809	-177.731155	6.426214	-3.802466
D:	1770.10	-1842	-503	-16347	-61	153	-244	2636	-358	-4809	-178.242828	6.426214	-3.141386
D:	1773.76	-1654	-642	-16465	9	153	-244	2636	-358	-4809	-177.772293	5.732275	-2.918778
D:	1777.58	-1851	-664	-16247	-13	178	-152	2636	-358	-4809	-177.664917	6.494428	-3.044688
D:	1781.45	-1779	-657	-16536	-9	94	-109	2636	-358	-4809	-177.729980	6.135837	-3.044688
D:	1785.30	-1648	-669	-16175	-87	255	-109	2636	-358	-4809	-177.636841	5.812778	-3.171737
D:	1789.02	-1842	-584	-16136	-5	90	-157	2655	-382	-5012	-177.932495	6.508358	-3.576875
D:	1792.60	-1806	-661	-16435	-59	162	-141	2655	-382	-5012	-177.702103	6.266086	-3.237255
D:	1796.29	-1764	-685	-16283	-60	91	-107	2655	-382	-5012	-177.596313	6.177720	-3.077994
D:	1800.04	-1736	-587	-16263	-115	103	-217	2655	-382	-5012	-177.938110	6.089231	-3.624394
D:	1803.91	-1670	-726	-16485	-127	158	-211	2655	-382	-5012	-177.938110	5.779177	-2.930525
D:	1807.63	-1670	-726	-16485	-96	77	-176	2648	-367	-5097	-177.483566	6.204500	-2.971177
D:	1811.15	-1744	-634	-16030	15	95	-167	2648	-367	-5097	-177.740326	5.614504	-2.672000
D:	1814.76	-1619	-712	-16454	-94	126	-25	2648	-367	-5097	-177.527466	5.939674	-3.327610
D:	1818.57	-1725	-595	-16570	-80	42	-156	2648	-367	-5097	-177.948730	6.267255	-2.729240
D:	1822.29	-1810	-694	-16467	-80	93	-92	2648	-367	-5097	-177.591949	5.964327	-3.217590
D:	1825.99	-1717	-609	-16424	-116	118	-117	2648	-367	-5097	-177.881699	6.767011	-3.543954
D:	1829.64	-1948	-618	-16406	-31	118	-117	2645	-387	-4984	-177.847977	6.766873	-3.573412
D:	1833.32	-1918	-614	-16400	-58	53	-103	2645	-387	-4984	-177.861145	6.666078	-3.573412
D:	1836.99	-1806	-599	-16448	45	78	-53	2645	-387	-4984	-177.919586	6.262075	-3.701968
D:	1840.55	-1842	-604	-16315	-7	44	-133	2645	-387	-4984	-177.885071	6.437361	-3.631544
D:	1844.17	-1701	-659	-16483	-254	-9	-101	2645	-387	-4984	-177.715744	5.887413	-3.415210
D:	1847.74	-1701	-659	-16483	-94	-17	-20	2637	-381	-5052	-177.715744	6.644783	-3.341173
D:	1851.46	-1912	-629	-16401	-149	155	-96	2637	-381	-5052	-177.808945	6.073922	-1.094789
D:	1855.18	-1783	-1061	-16723	-64	226	-105	2637	-381	-5052	-176.374908	6.915004	-2.058978
D:	1858.82	-2018	-871	-16617	-109	23	-135	2637	-381	-5052	-177.004730	5.193932	-3.628402
D:	1862.38	-1498	-604	-16469	-109	112	-103	2637	-381	-5052	-177.904877	6.193892	-2.996284
D:	1865.90	-1794	-703	-16516	-109	187	-64	2637	-381	-5052	-177.567932	6.193892	-4.583917
D:	1869.48	-2000	-422	-16173	-61	187	-64	2643	-389	-4969	-178.510590	7.047405	-4.583917
D:	1873.10	-1654	-791	-16310	-68	138	-147	2643	-389	-4969	-177.228683	5.783998	-2.702951
D:	1876.86	-1816	-582	-16233	-34	97	-150	2643	-389	-4969	-177.951904	6.379312	-3.791168
D:	1880.37	-1754	-7	-16390	-95	196	-136	2643	-389	-4969	-179.980835	6.108524	-6.987266
D:	1884.13	250	-3893	-16789	-63	213	-187	2643	-389	-4969	-166.950012	-0.831089	16.092155
D:	1888.00	14450	2131	-16802	189	34	-1571	2649	-378	-4929	-166.950012	-40.471405	-138.575729
D:	1891.66	14450	2131	-16802	-29	429	-9207	2649	-378	-4929	172.776855	44.297184	-19.896770
D:	1895.29	-15883	4904	-15522	43	-646	-2339	2649	-378	-4929	162.471451	-3.548570	-11.539660
D:	1899.11	1027	335	-16558	109	276	1260	2649	-378	-4929	178.846222	-1.784311	15.929306
D:	1902.77	522	-3675	-16349	297	-210	379	2649	-378	-4929	-167.336304	-21.281931	64.066689
D:	1906.38	7327	-7356	-17313	110	251	-615	2649	-378	-4929	-156.984818	-1.271207	20.973778
D:	1909.96	376	-4472	-16344	110	238	-876	2666	-355	-5010	-164.702286	-1.271207	2.128969
D:	1913.62	272	-1473	-16349	85	238	-876	2666	-355	-5010	-174.856873	-0.949331	1.495833
D:	1917.37	-3629	-3435	-16369	34	694	-175	2666	-355	-5010	-168.153534	12.242285	14.174362
D:	1921.03	-107	-2251	-16291	231	52	-136	2666	-355	-5010	-172.138077	0.372785	7.057499
D:	1924.64	-4434	-602	-16341	95	182	-104	2666	-355	-5010	-177.895432	15.171848	-2.524088
D:	1928.28	-4568	610	-16371	31	-13	-489	2666	-355	-4989	177.871323	15.580869	-7.883771
D:	1932.10	-3751	3019	-16360	163	-118	-729	2672	-364	-4989	169.549530	12.706487	-18.989954
D:	1935.86	-3449	1686	-16710	28	-57	-991	2672	-364	-4989	174.243622	11.605299	-13.450213
D:	1939.75	-3231	939	-16197	-36	-144	-800	2672	-364	-4989	174.243622	11.263265	-10.298255
D:	1943.45	-3231	939	-16197	-95	119	-523	2672	-364	-4989	176.687271	9.988736	-1.588872
D:	1947.05	-3011	-913	-17072	-106	125	-740	2672	-364	-4989	-176.943985	11.702859	-9.984711
D:	1950.76	-3492	927	-16833	40	195	-757	2686	-394	-5145	176.853104	5.004505	-7.962407
D:	1954.67	-1425	136	-16273	15	199	-547	2686	-394	-5145	179.526459	9.512124	-1.970721
D:	1958.28	-2735	-866	-16300	-241	-96	-211	2686	-394	-5145	-176.964005	7.675680	-8.270920
D:	1961.89	-2198	294	-16348	-57	-72	-325	2686	-394	-5145	178.974991	7.656539	-3.591027
D:	1965.50	-2202	-586	-16405	-101	-72	-325	2686	-394	-5145	-177.959457	7.640378	-3.324303
D:	1969.21	-3218	-519	-16616	-141	-32	-398	2686	-394	-5145	-178.216202	10.955820	-3.809640
D:	1972.81	-2555	48	-16489	-219	-148	-578	2688	-402	-5150	179.838516	8.808258	-6.902413
D:	1976.38	-1812	-1342	-16562	-275	13	-77	2688	-402	-5150	-175.372681	6.223678	0.270313
D:	1979.93	-1873	-481	-16502	-49	207	392	2688	-402	-5150	-175.372681	6.472904	-4.426662
D:	1983.48	-1873	-481	-16502	-112	281	243	2688	-402	-5150	-178.335678	6.534615	-3.509053
D:	1987.45	-1899	-650	-16566	113	272	228	2688	-402	-5150	-177.758270	6.569940	-3.691918
D:	1991.04	-1888	-609	-16382	192	348	187	2695	-383	-5134	-177.876266	5.859054	-2.075463
D:	1994.61	-1646	-832	-16019	222	246	177	2695	-383	-5134	-177.032043	5.787414	-3.018214
D:	1998.17	-1649	-678	-16256	222	220	181	2695	-383	-5134	-177.616943	6.127009	-3.372691
D:	2002.13	-1761	-615	-16394	130	221	186	2695	-383	-5134	-177.856873	5.463737	-2.635404
D:	2006.05	-1588	-765	-16585	159	150	176	2695	-383	-5134	-177.364273	6.043556	-3.282276
D:	2009.68	-1716	-625	-16197	173	150	176	2695	-383	-5134	-177.795456	6.043387	-3.128522
D:	2013.28	-1581	-587	-16463	94	88	179	2705	-365	-5325	-177.963181	5.482193	-3.128522
D:	2016.85	-1646	-683	-16441	109	172	106	2705	-365	-5325	-177.626389	5.712423	-2.552588
D:	2020.49	-1729	-661	-16438	124	153	30	2705	-365	-5325	-177.702515	5.999833	-2.657581
D:	2024.16	-1733	-680	-16647	164	119	71	2705	-365	-5325	-177.666107	5.938503	-2.602196
D:	2027.76	-1778	-634	-16224	173	106	118	2705	-365	-5325	-177.666107	6.249581	-2.745453
D:	2031.60	-1778	-634	-16224	140	146	101	2674	-385	-5147	-177.767380	5.669320	-2.826456
D:	2035.29	-1633	-729	-16434	176	109	75	2674	-385	-5147	-177.465286	6.000669	-2.515994
D:	2039.13	-1736	-783	-16497	36	11	48	2674	-385	-5147	-177.287827	6.509945	-2.477760
D:	2042.82	-1868	-777	-16352	-56	-60	14	2674	-385	-5147	-177.284744	5.284708	-2.788061
D:	2046.58	-1528	-744	-16503	-70	15	-16	2674	-385	-5147	-177.423920	6.498020	-3.351056
D:	2050.12	-1837	-611	-16117	-70	-49	-70	2674	-385	-5147	-177.834183	5.547113	-2.859499
D:	2054.06	-1624	-719	-16707	-71	-80	37	2695	-378	-5094	-177.540985	5.547041	-3.071263
D:	2057.70	-1864	-653	-16368	-19	-80	37	2695	-378	-5094	-177.720642	6.491968	-3.102178
D:	2061.28	-1750	-714	-16354	-46	-41	-7	2695	-378	-5094	-177.505356	6.102244	-2.761922
D:	2064.92	-1744	-676	-16258	-30	1	-44	2695	-378	-5094	-177.624268	6.117655	-2.948736
D:	2068.88	-1842	-596	-16278	-45	84	-26	2695	-378	-5094	-177.908371	6.451966	-3.615968
D:	2072.49	-1786	-694	-16516	-65	30	-43	2688	-394	-5147	-177.599091	6.166625	-3.150016
D:	2076.01	-1677	-677	-16302	-78	32	18	2688	-394	-5147	-177.627182	5.868553	-3.219936
D:	2079.60	-1677	-677	-16302	-23	38	47	2688	-394	-5147	-177.627182	6.643443	-3.805724
D:	2083.17	-1909	-562	-16381	6	-7	74	2688	-394	-5147	-178.040314	5.549806	-3.411987
D:	2086.73	-1568	-641	-16125	-98	-2	-52	2688	-394	-5147	-177.728821	6.237912	-3.556650
D:	2090.27	-1809	-620	-16539	158	46	-63	2688	-394	-5147	-177.858414	6.237912	-3.662206
D:	2094.05	-1658	-635	-16269	24	55	79	2688	-394	-4891	-177.770050	5.814790	-2.674736
D:	2097.72	-1715	-764	-16609	64	55	79	2700	-380	-5007	-177.371521	5.889303	-3.819353
D:	2101.39	-1885	-537	-16512	27	188	-115	2700	-380	-5007	-178.142548	6.509438	-3.819353
D:	2104.93	-1811	-885	-16505	49	180	45	2700	-380	-5007	-176.935959	6.252966	-1.974295
D:	2108.71	-1852	-648	-16523	140	205	28	2700	-380	-5007	-177.759354	6.390688	-3.239763
D:	2112.53	-1859	-555	-16447	139	123	-5	2700	-380	-5007	-178.072556	6.445310	-3.617347
D:	2116.35	-1795	-702	-16102	140	137	-30	2685	-382	-5219	-177.508881	6.355090	-2.720739
D:	2120.11	-1856	-498	-16418	111	94	53	2685	-382	-5219	-178.267868	6.446965	-3.929644
D:	2123.84	-1778	-712	-16733	93	34	12	2685	-382	-5219	-178.267868	6.060061	-2.838990
D:	2127.37	-1778	-712	-16733	99	90	93	2685	-382	-5219	-177.568726	6.146535	-2.887440
D:	2130.95	-1770	-689	-16422	110	158	-21	2685	-382	-5219	-177.602753	5.609077	-2.428216
D:	2134.84	-1613	-776	-16406	104	66	-46	2678	-386	-5234	-177.297165	6.119670	-3.074449
D:	2138.73	-1784	-676	-16626	131	43	13	2678	-386	-5234	-177.676926	6.435789	-2.614287
D:	2142.30	-1824	-733	-16154	131	62	-26	2678	-386	-5234	-177.407181	6.364541	-2.985757
D:	2145.91	-1828	-678	-16375	0	-15	-29	2678	-386	-5234	-177.634277	6.364541	-3.418840
D:	2149.65	-1851	-592	-16192	20	-15	-29	2678	-386	-5234	-177.911377	6.517374	-3.131464
D:	2153.48	-1674	-674	-16683	-105	85	-101	2678	-386	-5234	-177.691727	5.725504	-3.216346
D:	2157.07	-1662	-675	-16297	-38	34	-37	2678	-384	-5078	-177.633484	5.818222	-3.123392
D:	2160.62	-1810	-668	-16402	-119	-3	-90	2678	-384	-5078	-177.673065	6.292258	-3.147522
D:	2164.21	-1698	-713	-16756	-69	-32	-78	2678	-384	-5078	-177.568665	5.781394	-3.022874
D:	2167.92	-1846	-597	-16551	19	-108	252	2678	-384	-5078	-177.568665	6.360213	-3.561022
D:	2171.51	-1846	-597	-16551	-31	-28	-96	2678	-384	-5078	-177.939468	6.036098	-3.153888
D:	2175.30	-1760	-680	-16631	-127	-24	-50	2683	-391	-5313	-177.663864	6.011516	-2.552971
D:	2179.11	-1755	-774	-16648	-128	-231	-8	2683	-391	-5313	-177.343353	6.200711	-3.252086
D:	2182.76	-1778	-636	-16353	20	41	-86	2683	-391	-5313	-177.778015	6.142320	-3.058250
D:	2186.40	-1770	-674	-16434	-53	173	-114	2683	-391	-5313	-177.656723	6.446089	-3.274802
D:	2189.95	-1854	-630	-16398	-53	81	-142	2683	-391	-5313	-177.805069	6.446089	-3.416965
D:	2193.48	-1706	-616	-16464	-102	81	-142	2683	-391	-5313	-177.862534	5.911944	-3.548259
D:	2196.99	-1660	-708	-16289	6	105	-50	2700	-389	-5086	-177.516449	5.813602	-2.999071
D:	2200.53	-1710	-639	-16081	-6	44	-81	2700	-389	-5086	-177.729706	6.065261	-3.315854
D:	2204.11	-1688	-702	-16484	-55	88	-9	2700	-389	-5086	-177.566666	5.841755	-3.076562
D:	2207.78	-1709	-692	-16368	-23	113	-102	2700	-389	-5086	-177.566666	5.955608	-3.095423
D:	2211.37	-1709	-692	-16368	-70	175	-118	2700	-389	-5086	-177.584351	5.954465	-3.142746
D:	2215.02	-1715	-686	-16429	-44	191	-125	2684	-395	-5257	-177.614212	6.019357	-2.793045
D:	2218.69	-1702	-729	-16125	106	193	-87	2684	-395	-5257	-177.416702	6.000645	-2.898891
D:	2222.28	-1711	-717	-16262	106	84	-88	2684	-395	-5257	-177.480652	6.000645	-3.193180
D:	2225.94	-1556	-687	-16546	51	65	-25	2684	-395	-5257	-177.627655	5.367904	-3.140662
D:	2229.81	-1996	-662	-16296	111	65	-25	2684	-395	-5257	-177.678970	6.977545	-2.963264
D:	2233.63	-1694	-710	-16332	-91	40	-8	2684	-395	-5257	-177.515991	5.916327	-2.562826
D:	2237.38	-1756	-712	-16369	24	83	-109	2677	-372	-5235	-177.514618	6.117482	-2.573924
D:	2241.03	-1692	-707	-16203	-129	109	-74	2677	-372	-5235	-177.506790	5.956060	-2.561120
D:	2244.74	-1807	-1065	-16406	-128	161	-156	2677	-372	-5235	-176.291046	6.272462	-0.568666
D:	2248.40	-1832	-718	-16121	-102	77	-303	2677	-372	-5235	-177.455063	6.477138	-2.442587
D:	2252.17	-1729	-628	-16381	-134	175	-582	2677	-372	-5235	-177.809753	6.020997	-3.050312
D:	2255.77	-1710	-533	-16336	-173	10	-579	2677	-372	-5235	-177.809753	5.972796	-3.586734
D:	2259.54	-1710	-533	-16336	-147	-19	-376	2684	-377	-5007	-178.136505	6.074474	-3.348310
D:	2263.13	-1729	-615	-16236	-185	-33	-332	2684	-377	-5007	-177.835983	6.189988	-2.899439
D:	2266.76	-1783	-703	-16425	-229	-61	-457	2684	-377	-5007	-177.554428	6.569774	-3.749580
D:	2270.68	-1869	-533	-16220	-169	-56	-477	2684	-377	-5007	-178.123169	5.133439	-3.039210
D:	2274.39	-1510	-708	-16794	-189	47	-405	2684	-377	-5007	-177.591187	6.033760	-2.973159
D:	2277.97	-1721	-685	-16268	-189	-51	-357	2684	-377	-5007	-177.594101	6.033760	-3.005220
D:	2281.51	-1762	-737	-16368	-170	-51	-357	2672	-396	-5061	-177.427124	6.138186	-3.005220
D:	2285.08	-1613	-519	-16706	-72	92	-527	2672	-396	-5061	-178.225845	5.512455	-4.337257
D:	2288.59	-1735	-555	-16115	-132	159	-471	2672	-396	-5061	-178.032761	6.141572	-3.961892
D:	2292.18	-1705	-605	-16218	-123	30	-363	2672	-396	-5061	-177.868866	5.997502	-3.717004
D:	2295.80	-1694	-553	-16255	-103	-14	-308	2672	-396	-5061	-177.868866	5.946311	-4.020117
D:	2299.54	-1694	-553	-16255	-102	125	-314	2699	-383	-5144	-178.056778	6.024873	-3.532617
D:	2303.38	-1744	-590	-16514	66	-5	-271	2699	-383	-5144	-177.959091	6.469472	-3.180831
D:	2307.10	-1842	-636	-16232	-114	72	-296	2699	-383	-5144	-177.761444	6.446416	-3.024946
D:	2310.65	-1851	-670	-16369	31	9	-351	2699	-383	-5144	-177.661362	6.477496	-3.919971
D:	2314.30	-1900	-518	-16727	31	-106	-470	2699	-383	-5144	-178.231491	5.567509	-3.322593
D:	2318.23	-1595	-629	-16351	-247	73	-482	2699	-383	-5144	-177.802246	6.001575	-2.592608
D:	2322.04	-1719	-685	-16337	-31	90	-465	2691	-362	-5157	-177.604263	6.001575	-3.233606
D:	2325.61	-1850	-566	-16389	28	90	-465	2691	-362	-5157	-178.027298	6.436704	-3.233606
D:	2329.20	-1695	-562	-16256	-4	141	-485	2691	-362	-5157	-178.025223	5.949321	-3.271685
D:	2332.83	-1833	-606	-16443	-67	82	-406	2691	-362	-5157	-177.894577	6.356750	-3.029690
D:	2336.52	-1810	-715	-16339	-59	155	-360	2691	-362	-5157	-177.499557	6.315523	-2.456499
D:	2340.28	-1683	-726	-16686	-25	73	-430	2692	-369	-5240	-177.513885	5.754307	-2.516969
D:	2343.90	-1723	-762	-16434	-98	109	-530	2692	-369	-5240	-177.513885	5.979030	-2.236128
D:	2347.61	-1723	-762	-16434	-118	70	-579	2692	-369	-5240	-177.350479	5.922087	-2.570750
D:	2351.34	-1717	-708	-16538	20	228	-694	2692	-369	-5240	-177.553879	6.169332	-2.730393
D:	2355.14	-1780	-673	-16454	-79	173	-716	2692	-369	-5240	-177.663040	6.205027	-2.113746
D:	2358.86	-1781	-778	-16363	-65	149	-834	2713	-366	-5192	-177.283066	5.986141	-3.296232
D:	2362.68	-1717	-565	-16365	-126	31	-917	2713	-366	-5192	-178.027908	6.182580	-3.925367
D:	2366.40	-1758	-445	-16223	-32	31	-748	2713	-366	-5192	-178.434021	5.975780	-2.539124
D:	2369.98	-1711	-699	-16333	-32	-14	-655	2713	-366	-5192	-177.554657	5.975082	-2.645938
D:	2373.70	-1877	-683	-16553	-138	-14	-655	2713	-366	-5192	-177.642471	6.464064	-2.868836
D:	2377.47	-1820	-632	-16261	-103	-5	-680	2713	-366	-5192	-177.779510	6.381618	-3.032646
D:	2381.13	-1603	-628	-16683	-144	42	-639	2700	-367	-5109	-177.849472	5.484764	-3.145067
D:	2384.91	-1841	-743	-16357	-158	-6	-793	2700	-367	-5109	-177.404419	6.415314	-2.371203
D:	2388.87	-1864	-1165	-16344	-124	60	-837	2700	-367	-5109	-175.928055	6.490221	-0.049609
D:	2392.52	-1660	-446	-16285	-99	-1	-1302	2700	-367	-5109	-178.436493	5.818306	-4.051544
D:	2396.09	-1736	-13	-16587	-154	45	-1423	2700	-367	-5109	-179.960388	5.975014	-6.437689
D:	2399.68	-1736	-13	-16587	-101	-1	-757	2690	-349	-5120	-179.960388	5.608859	-3.592483
D:	2403.34	-1613	-479	-16418	-108	65	-349	2690	-349	-5120	-178.334106	6.210812	-2.835798
D:	2406.98	-1803	-611	-16557	-67	56	-353	2690	-349	-5120	-177.891830	5.892411	-3.017272
D:	2410.61	-1688	-575	-16346	-15	69	-378	2690	-349	-5120	-177.990601	5.892345	-2.677919
D:	2414.19	-1713	-645	-16586	241	18	-275	2690	-349	-5120	-177.778244	5.892345	-2.836963
D:	2417.88	-1539	-611	-16271	46	60	-69	2690	-349	-5120	-177.854721	5.399649	-2.660753
D:	2421.46	-1787	-643	-16542	31	60	-69	2690	-349	-5120	-177.779236	6.161206	-3.150691
D:	2425.01	-1694	-604	-16367	7	7	-71	2706	-383	-5269	-177.891785	5.905311	-3.333795
D:	2428.60	-1835	-524	-16311	40	59	-224	2706	-383	-5269	-178.165222	6.415737	-3.727697
D:	2432.29	-1679	-572	-16333	43	112	-57	2706	-383	-5269	-177.999496	5.865878	-3.512714
D:	2436.00	-1840	-694	-16267	38	127	-77	2706	-383	-5269	-177.999496	6.447811	-2.757487
D:	2439.61	-1840	-694	-16267	74	77	-72	2706	-383	-5269	-177.562302	5.925198	-3.246625
D:	2443.42	-1697	-618	-16340	11	188	-34	2700	-347	-5073	-177.839264	6.252300	-2.989080
D:	2447.10	-1751	-560	-15973	-42	175	-227	2700	-347	-5073	-177.997330	5.849754	-2.731867
D:	2451.01	-1705	-636	-16630	-40	106	47	2700	-347	-5073	-177.815079	6.254868	-2.756312
D:	2456.13	-1871	-630	-16317	-21	190	-72	2700	-347	-5073	-177.794159	6.536656	-2.651563
D:	2460.80	-1641	-698	-16524	-73	194	-157	2700	-347	-5073	-177.586411	5.666600	-2.848040
D:	2465.19	-1784	-697	-16232	237	149	-211	2696	-379	-5203	-177.546463	6.266454	-2.341914
D:	2469.71	-1630	-785	-16460	-3	163	-439	2696	-379	-5203	-177.274796	5.649232	-3.065063
D:	2474.12	-1754	-636	-16127	-63	127	-524	2696	-379	-5203	-177.746841	6.144959	-3.255222
D:	2477.94	-1745	-606	-16196	-83	6	-381	2696	-379	-5203	-177.862427	6.145391	-3.072636
D:	2481.51	-1736	-649	-16427	-196	6	-381	2696	-379	-5203	-177.742767	6.028119	-2.639487
D:	2485.17	-1749	-673	-16167	-92	96	-370	2725	-353	-5139	-177.621521	6.169316	-2.438832
D:	2488.78	-1792	-542	-16839	-152	46	-334	2725	-353	-5139	-178.161682	6.071591	-3.297603
D:	2492.40	-1877	-669	-16531	-119	52	-377	2725	-353	-5139	-177.687790	6.472801	-2.523525
D:	2495.97	-1585	-584	-16211	-28	2	-216	2725	-353	-5139	-177.687790	5.580805	-2.989161
D:	2499.48	-1585	-584	-16211	-82	-53	-194	2725	-353	-5139	-177.942062	5.929201	-2.577335
D:	2503.30	-1719	-666	-16539	-54	29	-272	2711	-363	-5176	-177.699280	6.335053	-3.548162
D:	2506.99	-1814	-506	-16332	-62	110	-198	2711	-363	-5176	-178.230682	5.382356	-2.785509
D:	2510.51	-1587	-676	-16831	-58	33	-90	2711	-363	-5176	-177.705246	6.649250	-3.466516
D:	2514.04	-1895	-513	-16248	-58	-5	-207	2711	-363	-5176	-178.196838	5.600977	-3.450571
D:	2518.05	-1616	-540	-16470	25	51	-129	2711	-363	-5176	-178.127380	6.117321	-3.322391
D:	2522.41	-1751	-550	-16329	65	61	-200	2711	-363	-5176	-178.076126	6.267950	-2.548210
D:	2527.38	-1787	-636	-16598	60	157	-141	2711	-343	-5276	-177.810867	6.358862	-2.457131
D:	2532.19	-1664	-588	-16294	112	74	-43	2711	-343	-5276	-177.938507	5.827434	-2.700348
D:	2536.78	-1551	-610	-16824	142	56	-42	2711	-343	-5276	-177.928741	5.263910	-2.725772
D:	2541.07	-1956	-676	-16216	40	73	-72	2711	-343	-5276	-177.618118	6.872172	-2.634845
D:	2545.27	-1767	-691	-16557	152	116	21	2708	-360	-5066	-177.615417	6.086597	-2.613500
D:	2549.09	-1840	-709	-16541	112	76	32	2708	-360	-5066	-177.550858	6.341827	-2.512907
D:	2552.83	-1779	-607	-16474	56	60	-70	2708	-360	-5066	-177.895065	6.159427	-3.063251
D:	2556.44	-1803	-561	-16797	111	90	-41	2708	-360	-5066	-178.092346	6.123497	-3.374773
D:	2560.08	-1822	-613	-16200	91	116	62	2708	-360	-5066	-177.838242	6.412679	-2.955217
D:	2563.74	-1822	-613	-16200	114	10	-42	2708	-345	-5048	-177.838242	5.783885	-2.535145
D:	2567.58	-1671	-663	-16484	246	101	-46	2706	-345	-5048	-177.701981	5.836429	-2.525850
D:	2571.43	-1660	-654	-16227	75	75	87	2706	-345	-5048	-177.697281	5.716415	-2.631756
D:	2575.12	-1645	-644	-16421	65	-50	1	2706	-345	-5048	-177.759354	5.966205	-2.554282
D:	2578.67	-1712	-653	-16369	127	25	-105	2706	-345	-5048	-177.720779	6.049953	-2.810006
D:	2582.37	-1741	-607	-16416	-84	5	-60	2706	-345	-5048	-177.887634	5.916860	-2.225299
D:	2586.20	-1723	-724	-16610	-84	-48	-37	2706	-345	-5048	-177.509384	6.405081	-2.837523
D:	2589.97	-1840	-582	-16381	-100	90	-21	2716	-351	-5287	-177.970459	6.405081	-2.593669
D:	2593.61	-1790	-624	-16298	34	90	-21	2716	-351	-5287	-177.812637	6.263275	-2.497476
D:	2597.38	-1841	-643	-16391	112	-42	-16	2716	-351	-5287	-177.758743	6.403779	-2.497476
D:	2600.91	-1794	-533	-16291	64	-29	-18	2716	-351	-5287	-178.131363	6.281065	-3.106029
D:	2604.51	-1717	-619	-16507	33	-36	-51	2716	-351	-5287	-177.857712	5.934384	-2.689768
D:	2608.17	-1868	-364	-16050	99	-46	11	2707	-324	-5296	-178.706085	6.637080	-3.532986
D:	2611.93	-1819	-611	-16194	63	-9	-26	2707	-324	-5296	-178.706085	6.404586	-2.165531
D:	2615.57	-1819	-611	-16194	-60	123	-57	2707	-324	-5296	-177.844498	5.869421	-1.991885
D:	2619.14	-1665	-646	-16184	15	105	-41	2707	-324	-5296	-177.719437	5.931221	-1.914123
D:	2622.72	-1706	-668	-16408	24	66	-36	2707	-324	-5296	-177.673920	5.637291	-1.895893
D:	2626.27	-1655	-688	-16753	24	34	44	2707	-324	-5296	-177.653595	6.330990	-2.612441
D:	2629.89	-1810	-660	-16301	62	134	-63	2722	-364	-5281	-177.686691	6.330990	-3.405301
D:	2633.54	-1648	-523	-16165	-26	134	-63	2722	-364	-5281	-178.152176	5.818264	-3.075048
D:	2637.51	-1666	-597	-16592	144	82	27	2722	-364	-5281	-177.944580	5.730327	-3.075048
D:	2641.18	-1909	-627	-16355	89	119	1	2722	-364	-5281	-177.809784	6.652946	-2.786524
D:	2644.87	-1734	-559	-16619	174	94	29	2722	-364	-5281	-178.078766	5.953430	-2.631843
D:	2648.66	-1867	-579	-16269	195	36	12	2723	-326	-5244	-177.966995	6.542606	-2.414201
D:	2652.55	-1694	-613	-16494	232	107	101	2723	-326	-5244	-177.876831	5.860102	-2.312095
D:	2656.29	-1685	-616	-16189	176	65	76	2723	-326	-5244	-177.826157	5.938031	-2.225595
D:	2660.04	-1870	-634	-16344	232	87	-32	2723	-326	-5244	-177.783798	6.522448	-2.124464
D:	2663.60	-1870	-634	-16344	179	58	-3	2723	-326	-5244	-177.783798	6.056498	-2.088074
D:	2667.30	-1754	-652	-16519	117	58	3	2712	-360	-5079	-177.744980	6.263004	-2.481492
D:	2671.29	-1814	-712	-16514	203	28	84	2712	-360	-5079	-177.536453	5.549900	-2.455564
D:	2674.94	-1586	-716	-16307	179	9	33	2712	-360	-5079	-177.491135	5.583145	-2.833617
D:	2678.55	-1608	-653	-16437	246	9	8	2712	-360	-5079	-177.730225	6.398407	-3.240829
D:	2682.08	-1838	-565	-16381	246	10	41	2712	-360	-5079	-178.029831	6.398407	-3.280392
D:	2685.67	-1710	-570	-16518	275	10	41	2712	-360	-5079	-178.028900	5.907084	-1.740138
D:	2689.28	-1873	-680	-16308	237	-14	4	2711	-317	-5205	-177.617554	6.546359	-1.764564
D:	2692.99	-1719	-626	-16310	212	-52	39	2711	-317	-5205	-177.807236	6.012287	-2.069282
D:	2696.67	-1751	-643	-16398	75	-25	13	2711	-317	-5205	-177.759689	6.090557	-1.988826
D:	2700.46	-1853	-646	-16349	147	18	-7	2711	-317	-5205	-177.742493	6.461515	-1.942338
D:	2704.99	-1872	-609	-16480	44	50	27	2711	-317	-5205	-177.888916	6.476386	-2.643603
D:	2709.99	-1838	-634	-16291	95	-92	1	2725	-356	-5235	-177.776581	6.407317	-2.239739
D:	2715.23	-1832	-707	-16299	148	-55	-251	2725	-356	-5235	-177.930542	6.281441	-2.899506
D:	2720.37	-1848	-668	-16381	75	-88	4	2725	-356	-5235	-177.670059	6.431420	-2.474477
D:	2724.50	-1756	-648	-16492	121	-89	4	2725	-356	-5235	-177.755142	6.073246	-2.634181
D:	2728.07	-1965	-527	-16343	211	38	11	2725	-327	-5128	-177.755142	6.852719	-2.787415
D:	2731.61	-1965	-527	-16343	231	143	-10	2736	-327	-5128	-178.158325	5.792661	-1.878968
D:	2735.17	-1631	-691	-16063	107	71	20	2736	-327	-5128	-177.541992	6.126719	-2.339666
D:	2738.84	-1769	-621	-16469	110	52	34	2736	-327	-5128	-177.845795	6.187626	-1.576538
D:	2742.67	-1765	-751	-16263	60	-27	-82	2736	-327	-5128	-177.361282	6.672001	-2.091151
D:	2746.28	-1904	-653	-16264	60	169	-19	2736	-327	-5128	-177.706055	5.809842	-2.447607
D:	2749.90	-1655	-597	-16255	49	139	-33	2736	-327	-5128	-177.901886	5.809808	-2.048074
D:	2753.79	-1589	-699	-16048	144	139	-33	2719	-345	-5270	-177.511185	5.649580	-2.155234
D:	2757.37	-1825	-680	-16215	162	21	60	2719	-345	-5270	-177.603851	6.416219	-2.155234
D:	2760.90	-1830	-685	-16846	98	85	50	2719	-345	-5270	-177.676727	6.194898	-2.285216
D:	2764.48	-1773	-632	-16441	173	71	44	2719	-345	-5270	-177.803848	6.150673	-2.492846
D:	2768.07	-1757	-662	-16347	181	105	-5	2719	-345	-5270	-177.803848	6.129880	-2.304443
D:	2771.76	-1721	-604	-16175	190	115	-12	2726	-333	-5037	-177.686218	6.069332	-2.555834
D:	2775.50	-1721	-604	-16175	116	50	94	2726	-333	-5037	-177.866730	6.814286	-1.892231
D:	2779.04	-1950	-724	-16303	271	93	-4	2726	-333	-5037	-177.462448	5.955349	-1.560206
D:	2782.61	-1702	-792	-16297	148	166	21	2726	-333	-5037	-177.222977	6.254997	-2.556638
D:	2786.19	-1778	-603	-16211	148	164	-34	2726	-333	-5037	-177.875000	6.226760	-2.151726
D:	2789.81	-1795	-687	-16438	149	164	-34	2726	-333	-5037	-177.612030	6.226695	-2.385741
D:	2793.55	-1653	-673	-16189	159	20	-2	2727	-354	-5258	-177.624741	5.825234	-2.095153
D:	2797.29	-1733	-716	-16084	241	27	22	2727	-354	-5258	-177.456314	6.143857	-2.104117
D:	2801.08	-1768	-739	-16856	214	38	70	2727	-354	-5258	-177.494873	5.982244	-2.166337
D:	2804.82	-1959	-711	-16201	141	-32	4	2727	-354	-5258	-177.492355	6.888281	-2.111829
D:	2808.37	-1813	-660	-16466	150	23	20	2727	-354	-5258	-177.709915	6.278464	-2.493615
D:	2812.01	-1645	-658	-16725	186	-15	20	2713	-306	-5138	-177.752243	5.613153	-1.855633
D:	2815.88	-1804	-613	-16432	104	88	12	2713	-306	-5138	-177.868805	6.261036	-2.008399
D:	2819.67	-1804	-613	-16432	29	38	-73	2713	-306	-5138	-177.868805	6.721732	-1.637463
D:	2823.28	-1944	-679	-16481	51	132	-85	2713	-306	-5138	-177.646027	6.425642	-1.856049
D:	2827.01	-1825	-630	-16193	44	-45	-75	2713	-306	-5138	-177.777237	5.900839	-1.276276
D:	2830.60	-1690	-744	-16335	42	-12	43	2713	-306	-5138	-177.397430	5.928342	-2.178634
D:	2834.33	-1706	-693	-16415	92	-49	27	2718	-340	-5136	-177.587784	6.349801	-1.797408
D:	2838.08	-1823	-756	-16365	92	48	-33	2718	-340	-5136	-177.360275	6.349801	-2.010127
D:	2841.61	-1809	-718	-16371	56	48	-33	2718	-340	-5136	-177.493958	6.299797	-1.849058
D:	2845.42	-1822	-743	-16291	51	40	-91	2718	-340	-5136	-177.393890	6.375108	-1.884837
D:	2849.17	-1621	-705	-16405	65	35	-57	2718	-340	-5136	-177.544479	5.638151	-1.899344
D:	2852.89	-1826	-688	-16339	126	-33	42	2723	-323	-5040	-177.594055	6.371342	-1.940678
D:	2856.61	-1775	-514	-16251	51	23	84	2723	-323	-5040	-178.193665	6.230460	-2.876068
D:	2860.20	-1605	-657	-16238	119	68	-2	2723	-323	-5040	-177.688293	5.640488	-2.125421
D:	2863.81	-1906	-771	-16292	103	12	37	2723	-323	-5040	-177.688293	6.665502	-1.469128
D:	2867.43	-1906	-771	-16292	153	18	103	2723	-323	-5040	-177.295792	5.264064	-2.091171
D:	2871.13	-1547	-689	-16777	184	242	61	2729	-346	-5174	-177.653534	6.158977	-2.204868
D:	2874.73	-1750	-689	-16203	155	82	88	2729	-346	-5174	-177.570313	6.704940	-2.544430
D:	2878.28	-1919	-626	-16312	155	59	59	2729	-346	-5174	-177.807510	5.616198	-2.285781
D:	2881.96	-1594	-680	-16196	203	-11	87	2729	-346	-5174	-177.601028	5.616162	-1.698681
D:	2885.71	-1679	-785	-16271	147	-11	87	2729	-346	-5174	-177.243118	5.884861	-2.077098
D:	2889.42	-1755	-738	-16756	198	-9	41	2729	-346	-5174	-177.483337	5.973706	-0.863128
D:	2893.09	-1826	-711	-16169	218	65	32	2729	-280	-5241	-177.487381	6.437258	-0.863585
D:	2896.77	-1669	-700	-16163	136	159	38	2712	-280	-5241	-177.525375	5.890189	-0.937730
D:	2900.64	-1654	-798	-16205	82	-4	125	2712	-280	-5241	-177.186020	5.821008	-0.388190
D:	2904.49	-1858	-813	-16294	229	-75	22	2712	-280	-5241	-177.148773	6.497500	-0.321869
D:	2908.12	-1848	-731	-16171	117	-21	-57	2712	-280	-5241	-177.416962	6.513000	-0.749579
D:	2911.93	-1798	-672	-16125	149	6	87	2712	-280	-5241	-177.416962	6.357135	-1.075931
D:	2915.66	-1798	-672	-16125	39	-55	12	2719	-315	-5181	-177.618851	5.759080	-1.253726
D:	2919.52	-1655	-773	-16392	89	89	34	2719	-315	-5181	-177.305328	6.141493	-1.906348
D:	2923.18	-1770	-655	-16437	65	-16	64	2719	-315	-5181	-177.723267	5.480299	-1.546980
D:	2926.82	-1566	-719	-16307	139	25	19	2719	-315	-5181	-177.480621	5.602530	-1.525847
D:	2930.37	-1637	-738	-16672	137	57	172	2719	-315	-5181	-177.470627	6.038138	-1.502458
D:	2934.04	-1722	-721	-16264	137	66	-12	2719	-315	-5181	-177.466904	6.038138	-1.283491
D:	2937.90	-1603	-806	-16734	119	78	18	2728	-314	-5031	-177.247681	5.465701	0.027549
D:	2941.64	-1872	-1015	-16181	42	78	18	2728	-314	-5031	-176.415863	6.586645	0.028441
D:	2945.23	-1561	-833	-16690	104	-1	71	2728	-314	-5031	-177.147964	5.336829	-1.105881
D:	2949.09	-1795	-735	-16566	63	39	117	2728	-314	-5031	-177.464798	6.178278	-1.596314
D:	2952.78	-1785	-711	-16412	108	18	82	2728	-314	-5031	-177.524628	6.201610	-2.113111
D:	2956.38	-1731	-765	-16659	104	29	-44	2728	-343	-5132	-177.375992	5.926164	-1.892902
D:	2959.99	-1873	-754	-16315	91	60	35	2728	-343	-5132	-177.375992	6.542289	-1.836975
D:	2963.60	-1873	-754	-16315	101	29	60	2728	-343	-5132	-177.359192	5.886935	-2.179857
D:	2967.18	-1725	-715	-16715	57	104	-5	2728	-343	-5132	-177.555847	6.573404	-2.021025
D:	2971.65	-1848	-753	-16317	10	31	102	2728	-343	-5132	-177.362991	6.454943	-0.850451
D:	2976.84	-1683	-622	-16184	-13	94	164	2714	-293	-5289	-177.804276	5.932766	-1.132391
D:	2981.80	-1709	-696	-16106	60	44	42	2714	-293	-5289	-177.530823	5.700500	-0.981466
D:	2986.37	-1621	-729	-16223	116	60	-6	2714	-293	-5289	-177.432297	6.674292	-0.830814
D:	2990.68	-1930	-763	-16476	69	29	-239	2714	-293	-5289	-177.353775	5.704063	-0.633967
D:	2994.27	-1653	-804	-16530	69	39	61	2714	-293	-5289	-177.220627	6.502368	-1.914202
D:	2998.03	-1840	-721	-16124	137	65	102	2718	-338	-5105	-177.444901	6.237827	-2.442997
D:	3001.96	-1805	-643	-16502	138	74	35	2718	-338	-5105	-177.773834	6.237723	-1.880349
D:	3005.67	-1647	-759	-16659	159	74	35	2718	-338	-5105	-177.396591	5.640579	-1.720548
D:	3009.43	-1790	-763	-16235	102	44	37	2718	-338	-5105	-177.314468	6.285073	-1.757731
D:	3013.10	-1585	-695	-16560	25	38	91	2718	-338	-5105	-177.602020	5.462653	-1.477628
D:	3016.64	-1868	-714	-16446	167	-5	100	2719	-309	-5382	-177.519318	6.474247	-1.302961
D:	3020.21	-1685	-676	-16224	53	25	-13	2719	-309	-5382	-177.619293	5.924465	-1.487557
D:	3024.11	-1720	-854	-16235	110	-47	-20	2719	-309	-5382	-176.994110	6.039473	-0.452924
D:	3027.75	-1720	-854	-16235	88	-94	11	2719	-309	-5382	-176.994110	6.601448	-1.847108
D:	3031.37	-1896	-614	-16372	110	-23	3	2719	-309	-5382	-177.857468	6.266084	-0.991374
D:	3034.90	-1803	-768	-16403	101	45	70	2723	-323	-5200	-177.324570	6.354784	-1.686280
D:	3038.48	-1824	-712	-16363	79	22	81	2723	-323	-5200	-177.513702	6.208690	-2.645316
D:	3042.18	-1782	-541	-16372	79	-4	13	2723	-323	-5200	-178.112656	6.208690	-1.449651
D:	3045.89	-1944	-735	-16016	108	-33	26	2723	-323	-5200	-177.377686	6.913627	-1.696677
D:	3049.60	-1782	-707	-16271	42	-33	26	2723	-323	-5200	-177.517197	6.244463	-1.806529
D:	3053.28	-1693	-713	-16778	-22	3	53	2723	-323	-5200	-177.571854	5.756991	-1.955222
D:	3056.79	-1822	-683	-16175	-8	77	24	2723	-323	-5017	-177.587326	6.421391	-1.457702
D:	3060.37	-1486	-820	-16456	58	121	-62	2720	-295	-5017	-177.152542	5.153687	-0.814841
D:	3064.29	-1754	-693	-16450	46	103	87	2720	-295	-5017	-177.592941	6.081059	-1.478954
D:	3068.29	-1768	-802	-16335	4	58	-19	2720	-295	-5017	-177.194427	6.170104	-0.858624
D:	3071.88	-1915	-712	-16293	56	-28	33	2720	-295	-5017	-177.194427	6.697376	-1.318899
D:	3075.60	-1915	-712	-16293	67	228	31	2720	-295	-5017	-177.503021	6.248094	-1.423608
D:	3079.40	-1774	-691	-16189	-66	140	7	2728	-308	-5127	-177.561142	5.800806	-1.358234
D:	3083.06	-1666	-739	-16383	5	83	48	2728	-308	-5127	-177.422501	6.609615	-1.517712
D:	3086.77	-1888	-700	-16279	6	169	-20	2728	-308	-5127	-177.543015	6.626587	-1.400841
D:	3090.45	-1908	-727	-16408	103	70	50	2728	-308	-5127	-177.468246	6.337298	-1.192930
D:	3094.11	-1848	-777	-16622	103	16	52	2728	-308	-5127	-177.328857	6.337298	-1.521802
D:	3097.66	-1798	-701	-16269	121	16	52	2728	-308	-5127	-177.537994	6.300947	-1.224464
D:	3101.29	-1516	-798	-16794	10	-5	-19	2719	-310	-5098	-177.284760	5.152499	-1.224464
D:	3105.09	-1766	-781	-16197	61	41	46	2719	-310	-5098	-177.244644	6.215542	-1.127988
D:	3108.81	-1813	-745	-16245	45	-5	55	2719	-310	-5098	-177.379471	6.361618	-1.334390
D:	3112.56	-1637	-777	-16332	97	-57	67	2719	-310	-5098	-177.281418	5.717536	-1.201043
D:	3116.28	-1746	-634	-16375	-36	46	-104	2719	-310	-5098	-177.787994	6.081878	-2.418833
D:	3119.99	-1870	-721	-16466	122	44	-79	2720	-338	-5177	-177.787994	6.473212	-1.937536
D:	3123.63	-1870	-721	-16466	85	-7	45	2720	-338	-5177	-177.498001	6.611245	-2.596421
D:	3127.27	-1878	-589	-16193	16	-36	-79	2720	-338	-5177	-177.922089	5.996304	-1.954705
D:	3130.92	-1709	-713	-16255	107	-9	81	2720	-338	-5177	-177.493652	6.015701	-1.779088
D:	3134.76	-1749	-759	-16580	100	-78	125	2720	-338	-5177	-177.384171	6.439963	-2.070979
D:	3138.50	-1855	-695	-16420	108	2	50	2720	-338	-5177	-177.581573	5.577749	-1.378801
D:	3142.09	-1634	-759	-16715	108	-72	49	2722	-306	-5041	-177.405319	5.462780	-1.045868
D:	3145.66	-1555	-798	-16241	87	-72	49	2722	-306	-5041	-177.192276	5.462743	-1.009210
D:	3149.28	-1991	-714	-16513	65	48	46	2722	-306	-5041	-177.529388	6.868906	-1.535238
D:	3153.08	-1877	-717	-16287	63	-2	101	2722	-306	-5041	-177.484543	6.567955	-1.466295
D:	3156.81	-1806	-736	-16462	106	-66	80	2722	-306	-5041	-177.445297	6.254709	-1.728721
D:	3160.50	-1698	-781	-16092	124	-121	35	2718	-329	-5153	-177.226639	6.016610	-1.391715
D:	3164.04	-1811	-735	-16297	108	-47	55	2718	-329	-5153	-177.226639	6.334764	-1.689867
D:	3167.67	-1811	-735	-16297	59	-47	7	2718	-329	-5153	-177.422913	5.807253	-1.374021
D:	3171.20	-1721	-825	-16902	62	51	83	2718	-329	-5153	-177.210785	6.296311	-2.722358
D:	3174.85	-1816	-554	-16450	152	20	-19	2718	-329	-5153	-178.076370	6.433388	-1.710921
D:	3178.46	-1856	-737	-16444	82	-48	23	2718	-329	-5153	-177.439026	6.106813	-1.758771
D:	3182.06	-1736	-729	-16210	82	47	1	2725	-332	-5155	-177.430237	6.106813	-1.230310
D:	3185.67	-1811	-818	-16132	84	47	1	2725	-332	-5155	-177.102417	6.397321	-1.733162
D:	3189.28	-1860	-765	-16933	137	-36	43	2725	-332	-5155	-177.418488	6.262353	-1.733162
D:	3192.90	-1950	-603	-16368	133	37	36	2725	-332	-5155	-177.895416	6.789543	-2.451760
D:	3196.47	-1665	-808	-16275	134	-47	73	2725	-332	-5155	-177.163010	5.834310	-1.345067
D:	3200.02	-1894	-754	-16454	71	22	4	2730	-320	-5200	-177.381485	6.559718	-1.413880
D:	3203.61	-1894	-754	-16454	7	52	-43	2730	-320	-5200	-177.381485	6.422121	-2.472112
D:	3207.12	-1823	-553	-16187	-22	66	28	2730	-320	-5200	-178.048599	5.826456	-1.106072
D:	3210.66	-1718	-832	-16816	57	29	6	2730	-320	-5200	-177.172729	6.748011	-1.619910
D:	3214.27	-1938	-711	-16364	57	94	-36	2730	-320	-5200	-177.517349	6.204524	-1.531795
D:	3218.08	-1810	-743	-16633	117	142	57	2730	-320	-5200	-177.447525	6.204524	-1.388965
D:	3221.61	-1771	-740	-16356	140	142	57	2730	-320	-5310	-177.414749	6.173729	-0.969971
D:	3225.16	-1779	-693	-16301	69	116	30	2734	-296	-5310	-177.570908	6.222899	-1.220700
D:	3228.73	-1824	-757	-16466	145	-10	153	2734	-296	-5310	-177.372986	6.314666	-0.899132
D:	3232.44	-1884	-641	-16434	30	46	-33	2734	-296	-5310	-177.771576	6.535127	-1.531841
D:	3236.54	-1713	-740	-16783	78	139	-36	2734	-296	-5310	-177.480576	5.822412	-1.086452
D:	3240.72	-1848	-764	-16217	90	183	-4	2734	-296	-5310	-177.307968	6.494119	-1.731784
D:	3245.26	-1901	-690	-16265	72	123	9	2715	-342	-5143	-177.576065	6.439552	-2.339145
D:	3250.24	-1837	-658	-16263	75	120	40	2715	-342	-5143	-177.688324	6.427462	-2.246763
D:	3255.02	-1815	-668	-16098	-1	116	-15	2715	-342	-5143	-177.629074	5.965603	-1.488461
D:	3260.05	-1760	-746	-16414	42	33	41	2715	-342	-5143	-177.402985	6.114104	-1.208312
D:	3264.18	-1776	-762	-16360	73	39	76	2729	-303	-5151	-177.338501	6.189147	-1.104231
D:	3267.85	-1942	-782	-16314	65	-43	7	2729	-303	-5151	-177.338501	6.780966	-0.967074
D:	3271.44	-1942	-782	-16314	179	-35	-36	2729	-303	-5151	-177.260895	6.575202	-0.645855
D:	3275.29	-1886	-843	-16341	-54	-9	-44	2729	-303	-5151	-177.052063	6.274806	-1.447896
D:	3279.04	-1826	-709	-16592	65	68	47	2729	-303	-5151	-177.558395	6.658046	-1.273036
D:	3282.62	-1889	-720	-16167	37	14	35	2729	-303	-5151	-177.455246	5.926318	-1.226980
D:	3286.15	-1729	-813	-16637	37	-13	39	2729	-324	-5203	-177.207581	6.176205	-1.350766
D:	3289.72	-1798	-787	-16597	98	-13	39	2729	-324	-5203	-177.290390	6.176198	-1.153069
D:	3293.30	-1826	-813	-16412	1	127	15	2729	-324	-5203	-177.169266	6.341097	-1.153069
D:	3296.89	-1866	-747	-16531	151	18	21	2729	-324	-5203	-177.417923	6.433899	-1.543330
D:	3300.97	-1878	-743	-16384	54	35	51	2729	-324	-5203	-177.408691	6.532472	0.030813
D:	3305.63	-1670	-872	-16445	80	-6	103	2724	-284	-5389	-176.969940	5.790635	-1.111944
D:	3309.88	-1713	-666	-16283	80	9	32	2724	-284	-5389	-177.663071	6.000722	-0.848328
D:	3314.20	-1866	-713	-16362	-208	-36	84	2724	-284	-5389	-177.510071	6.146691	-0.530329
D:	3318.67	-1785	-779	-16557	12	122	81	2724	-284	-5389	-177.311478	6.217360	-0.766363
D:	3322.85	-1766	-721	-16195	-66	90	-77	2735	-323	-5167	-177.456116	6.005313	-1.051376
D:	3326.73	-1713	-828	-16263	-84	49	-40	2735	-323	-5167	-177.090652	6.521038	-1.616015
D:	3330.63	-1892	-735	-16536	-87	82	55	2735	-323	-5167	-177.460205	6.272511	-2.156943
D:	3334.34	-1783	-625	-16210	-34	138	-7	2735	-323	-5167	-177.797211	6.496966	-0.119221
D:	3337.90	-1863	-999	-16329	-34	113	5	2735	-323	-5167	-176.504242	6.496966	-1.409353
D:	3341.47	-1963	-759	-16281	13	113	5	2735	-323	-5167	-177.336105	6.867781	-1.444931
D:	3345.16	-1634	-813	-16394	-8	122	13	2738	-332	-5305	-177.166183	5.685134	-1.212974
D:	3348.95	-1812	-672	-16297	-11	175	20	2738	-332	-5305	-177.644012	6.339281	-1.959159
D:	3352.61	-1842	-723	-16306	-71	86	67	2738	-332	-5305	-177.466431	6.438987	-1.669782
D:	3356.44	-1776	-741	-16518	-77	126	78	2738	-332	-5305	-177.436676	6.130876	-1.635326
D:	3360.14	-1885	-753	-16597	-72	50	78	2738	-332	-5305	-177.407532	6.473177	-1.574057
D:	3363.80	-1862	-718	-16257	-68	137	44	2726	-335	-5121	-177.407532	6.527801	-1.891852
D:	3367.46	-1862	-718	-16257	-29	91	84	2726	-335	-5121	-177.476379	6.204802	-1.845094
D:	3371.02	-1783	-735	-16384	-50	51	29	2726	-335	-5121	-177.436630	6.570949	-2.060713
D:	3374.61	-1864	-683	-16168	-27	139	91	2726	-335	-5121	-177.586273	5.573833	-1.703938
D:	3378.28	-1601	-766	-16388	-27	135	81	2726	-335	-5121	-177.329086	6.770744	-2.242701
D:	3382.07	-1960	-661	-16496	-80	134	48	2726	-335	-5121	-177.710602	6.770744	-2.156091
D:	3385.91	-1721	-690	-16287	-14	69	47	2726	-335	-5026	-177.579361	6.026707	-0.639221
D:	3389.61	-1774	-825	-16541	-68	69	47	2731	-287	-5026	-177.149902	6.114135	-0.639221
D:	3393.14	-1897	-782	-16362	-11	138	67	2731	-287	-5026	-177.268936	6.606031	-0.813393
D:	3396.76	-1731	-753	-16698	-42	65	88	2731	-287	-5026	-177.423218	5.912641	-1.067727
D:	3400.62	-1903	-721	-16295	14	58	68	2731	-287	-5026	-177.471741	6.654818	-1.128662
D:	3405.39	-1837	-755	-16313	-11	59	39	2731	-287	-5026	-177.355362	6.418363	-1.138757
D:	3409.89	-1708	-816	-16756	-42	56	-24	2731	-314	-5125	-177.217178	6.660295	-1.504759
D:	3414.34	-1913	-725	-16367	-23	-38	16	2731	-314	-5125	-177.468887	6.573294	-0.711211
D:	3418.76	-1926	-889	-16691	-42	63	22	2731	-314	-5125	-176.956406	6.482355	-2.043592
D:	3423.07	-1881	-634	-16543	-37	-21	3	2731	-314	-5125	-177.810501	5.885616	-1.133751
D:	3426.61	-1671	-789	-16191	-177	64	62	2731	-314	-5125	-177.215378	5.878953	-0.953009
D:	3430.13	-1677	-846	-16265	-177	93	39	2727	-316	-5041	-177.027756	6.168648	-2.137401
D:	3433.79	-1773	-632	-16383	-128	93	39	2727	-316	-5041	-177.796066	6.172248	-0.296560
D:	3437.37	-1747	-990	-16679	-57	172	0	2727	-316	-5041	-176.608353	5.969246	-0.294630
D:	3440.95	-1786	-793	-16342	-24	161	71	2727	-316	-5041	-177.227112	6.229954	-1.253363
D:	3444.45	-1773	-651	-16353	-86	66	100	2727	-316	-5041	-177.725555	6.183188	-2.189997
D:	3448.31	-1720	-789	-16600	-22	123	18	2724	-333	-5220	-177.283997	5.909112	-1.495586
D:	3452.07	-1791	-741	-16297	-91	185	117	2724	-333	-5220	-177.401871	6.265261	-1.669553
D:	3455.60	-1791	-741	-16297	-52	68	60	2724	-333	-5220	-177.401871	5.109150	-1.601846
D:	3459.20	-1482	-774	-16558	-90	201	-3	2724	-333	-5220	-177.328903	6.444387	-2.056940
D:	3462.80	-1845	-671	-16321	-79	196	69	2724	-333	-5220	-177.650986	6.599416	-1.886064
D:	3466.37	-1870	-693	-16149	-23	215	102	2724	-333	-5220	-177.548019	6.620183	-1.441017
D:	3470.06	-1883	-714	-16209	-23	148	72	2728	-311	-5170	-177.483002	6.583325	-2.331918
D:	3473.59	-1885	-557	-16325	-17	148	72	2728	-311	-5170	-178.051117	6.583005	-2.412882
D:	3477.12	-1507	-171	-16321	23	170	-255	2728	-311	-5170	-179.405014	5.275317	-4.599997
D:	3480.84	-1955	-666	-16728	-52	43	136	2728	-311	-5170	-177.725296	6.660881	-1.818271
D:	3484.67	-1595	-310	-16404	0	7	87	2728	-311	-5170	-178.922653	5.552726	-3.904005
D:	3488.28	-2077	-2803	-14761	-65	149	25	2708	-315	-5137	-169.252991	7.870822	10.862449
D:	3492.05	-1996	-2544	-17034	-280	158	-1038	2708	-315	-5137	-171.510803	6.610830	7.764304
D:	3495.90	-1899	1978	-15019	-751	-59	33	2708	-315	-5137	-171.510803	7.145386	-16.516439
D:	3499.68	-1899	1978	-15019	-97	173	-293	2708	-315	-5137	172.502411	2.965200	-13.925091
D:	3503.42	-818	1297	-15739	-194	-138	-90	2708	-315	-5137	175.294250	7.195747	-3.261657
D:	3507.02	-2219	-428	-17571	252	-9	-136	2722	-317	-5116	-178.609924	6.903410	1.514922
D:	3510.60	-2005	-1307	-16509	89	163	-139	2722	-317	-5116	-175.478577	8.193727	3.577243
D:	3514.12	-2246	-1614	-15515	89	195	-52	2722	-317	-5116	-174.066101	8.193727	-7.389732
D:	3517.84	-899	228	-16095	-236	-96	-169	2722	-317	-5116	179.193695	3.196757	-0.282230
D:	3521.62	-1830	-985	-16747	-182	-96	-169	2722	-317	-5116	-176.639145	6.225666	1.606359
D:	3525.27	-2016	-1365	-17035	-248	-197	-84	2722	-317	-5116	-175.423904	6.728086	1.532361
D:	3528.83	-1640	-722	-16201	-420	68	-136	2727	-328	-5205	-177.453522	5.774743	-1.697338
D:	3532.43	-1756	64	-16108	-245	39	24	2727	-328	-5205	179.777649	6.221618	-6.077612
D:	3536.16	-1879	-309	-17004	126	-118	-41	2727	-328	-5205	-178.964188	6.304949	-4.066614
D:	3539.91	-1896	-745	-16440	79	-11	-75	2727	-328	-5205	-178.964188	6.572278	-1.594710
D:	3543.74	-1612	-1059	-15715	164	54	-6	2727	-328	-5205	-177.410583	5.843765	0.401002
D:	3547.64	-1612	-1059	-15715	11	0	-5	2727	-328	-5205	-176.149994	6.225386	-1.786409
D:	3551.42	-1780	-707	-16303	-93	-58	-39	2731	-338	-5254	-177.522079	6.609245	-3.184860
D:	3555.75	-1698	-849	-16618	-199	48	52	2731	-338	-5254	-177.080566	5.826766	-1.224362
D:	3560.52	-1898	-820	-16323	-259	166	-32	2731	-338	-5254	-177.129333	6.624351	-1.276322
D:	3565.41	-1785	-542	-16560	-179	246	-121	2731	-338	-5254	-178.130661	6.149065	-3.368193
D:	3570.04	-1751	-450	-16299	-69	276	-81	2731	-338	-5254	-178.423782	6.572824	-2.022179
D:	3574.61	-1868	-610	-16201	97	181	23	2738	-314	-5225	-177.848969	5.669334	-0.518228
D:	3578.52	-1637	-897	-16466	52	79	31	2738	-314	-5225	-176.887070	6.535822	-0.662140
D:	3582.14	-1866	-858	-16265	52	18	127	2738	-314	-5225	-176.985596	6.535822	-2.447239
D:	3585.73	-1837	-541	-16367	-21	18	127	2738	-314	-5225	-178.112076	6.400687	-1.895617
D:	3589.37	-1762	-653	-16600	-129	60	85	2738	-314	-5225	-177.752548	6.054481	-2.559400
D:	3593.29	-1952	-638	-16415	-56	180	8	2719	-347	-5130	-177.779449	6.776649	-2.554352
D:	3597.17	-1656	-689	-16178	-68	217	17	2719	-347	-5130	-177.566574	5.839426	-2.278106
D:	3600.73	-1724	-600	-16117	140	145	-74	2719	-347	-5130	-177.873230	6.101573	-2.746772
D:	3604.39	-1777	-611	-16293	207	100	27	2719	-347	-5130	-177.857605	6.220222	-2.713812
D:	3608.10	-2014	-727	-16656	201	0	64	2719	-347	-5130	-177.505966	6.888292	-2.123916
D:	3611.82	-1866	-744	-16345	9	5	32	2722	-323	-5288	-177.505966	6.506394	-1.425132
D:	3615.37	-1866	-744	-16345	-25	-46	109	2722	-323	-5288	-177.399017	6.203734	-1.397721
D:	3619.00	-1767	-746	-16239	-51	150	82	2722	-323	-5288	-177.374985	6.164434	-2.228460
D:	3622.59	-1801	-616	-16664	11	25	44	2722	-323	-5288	-177.888214	6.513775	-1.836057
D:	3626.28	-1880	-675	-16452	-245	156	40	2722	-323	-5288	-177.655807	5.905831	-1.533334
D:	3630.01	-1704	-734	-16457	-132	147	-8	2722	-323	-5288	-177.451477	5.829126	-1.749146
D:	3633.74	-1681	-722	-16450	193	147	-8	2747	-323	-5095	-177.492096	6.271019	-1.982184
D:	3637.73	-1790	-668	-16276	-3	37	-25	2747	-323	-5095	-177.655014	6.270994	-2.252492
D:	3641.62	-1616	-649	-16853	115	-66	44	2747	-323	-5095	-177.799911	5.473360	-2.191133
D:	3645.27	-1868	-636	-16247	159	57	-6	2747	-323	-5095	-177.763519	6.554005	-2.135120
D:	3648.86	-1757	-798	-16503	28	64	5	2747	-323	-5095	-177.236862	6.070271	-1.566206
D:	3652.60	-1869	-746	-16333	-38	174	37	2719	-339	-5170	-177.390106	6.521466	-1.789128
D:	3656.14	-1862	-688	-16377	65	181	71	2719	-339	-5170	-177.599655	6.480973	-2.120937
D:	3659.72	-1862	-688	-16377	57	206	-7	2719	-339	-5170	-177.599655	6.245913	-2.078924
D:	3663.27	-1807	-703	-16496	73	161	-1	2719	-339	-5170	-177.564972	6.278638	-2.354468
D:	3666.95	-1790	-643	-16257	54	225	-32	2719	-339	-5170	-177.740250	5.615823	-2.704425
D:	3670.79	-1639	-603	-16658	44	162	-57	2719	-339	-5164	-177.932114	6.503582	-2.579790
D:	3674.50	-1854	-645	-16251	61	154	-128	2737	-354	-5164	-177.732376	5.832455	-2.320845
D:	3678.28	-1675	-705	-16383	61	235	17	2737	-354	-5164	-177.541183	5.894530	-2.148119
D:	3681.98	-1715	-745	-16595	78	127	28	2737	-354	-5164	-177.434784	6.765588	-1.762814
D:	3685.54	-1946	-798	-16387	116	127	28	2737	-354	-5164	-177.217285	6.764569	-1.797849
D:	3689.12	-1767	-717	-16808	107	125	104	2737	-354	-5164	-177.562561	5.996140	-1.717919
D:	3692.76	-1712	-664	-16308	55	171	51	2736	-311	-5007	-177.673660	5.988163	-1.889848
D:	3696.49	-1928	-654	-16242	39	209	-62	2736	-311	-5007	-177.699417	6.764363	-1.892653
D:	3700.00	-1922	-751	-16310	5	113	-64	2736	-311	-5007	-177.368881	6.713992	-1.393566
D:	3703.59	-1922	-751	-16310	66	74	46	2736	-311	-5007	-177.368881	6.305101	-1.585463
D:	3707.29	-1809	-720	-16357	86	93	-80	2736	-311	-5007	-177.484818	7.030721	-1.868119
D:	3710.90	-2019	-661	-16358	78	77	40	2736	-311	-5007	-177.691284	6.263041	-1.875990
D:	3714.74	-1780	-660	-16206	12	146	37	2736	-311	-5007	-177.673111	5.584060	-1.439267
D:	3718.62	-1595	-793	-16295	-79	4	44	2730	-327	-5060	-177.219101	6.008124	-1.910173
D:	3722.47	-1743	-715	-16546	-30	81	40	2730	-327	-5060	-177.530853	6.389164	-1.762609
D:	3726.40	-1829	-729	-16318	-76	275	-37	2730	-327	-5060	-177.447266	5.688376	-2.005129
D:	3730.31	-1665	-707	-16701	18	51	27	2730	-327	-5060	-177.581192	6.397078	-2.223448
D:	3734.46	-1820	-640	-16221	112	46	-39	2722	-328	-5222	-177.745804	6.037838	-0.415743
D:	3739.92	-1772	-737	-16487	132	21	62	2722	-328	-5222	-177.445709	6.128630	-1.657462
D:	3745.09	-1838	-828	-16346	118	-17	50	2722	-328	-5222	-177.105408	6.407627	-2.087055
D:	3749.83	-1880	-662	-16625	-70	116	69	2722	-328	-5222	-177.724945	6.370026	-1.810494
D:	3754.75	-1823	-700	-16315	-6	145	24	2725	-351	-5291	-177.548447	6.348073	-2.031104
D:	3758.91	-1820	-723	-16344	168	95	47	2725	-351	-5291	-177.472336	6.389293	-1.902362
D:	3762.49	-1816	-739	-16201	141	110	-40	2725	-351	-5291	-177.393524	5.829113	-1.911172
D:	3766.03	-1677	-752	-16410	141	117	-50	2725	-351	-5291	-177.381454	5.829113	-2.103481
D:	3769.59	-1912	-713	-16471	105	117	-50	2725	-351	-5291	-177.526550	6.615474	-2.367167
D:	3773.60	-1868	-660	-16313	114	122	-54	2725	-351	-5291	-177.688400	6.527380	-1.908926
D:	3777.14	-1559	-721	-16611	190	83	39	2723	-314	-5056	-177.519867	5.356845	-1.699297
D:	3780.75	-1908	-695	-16375	175	194	37	2723	-314	-5056	-177.574905	6.640354	-1.729000
D:	3784.47	-1901	-741	-16499	87	20	111	2723	-314	-5056	-177.433701	6.566219	-1.514605
D:	3788.16	-1780	-737	-16471	59	187	11	2723	-314	-5056	-177.443222	6.162008	-1.544975
D:	3791.83	-1786	-719	-16406	33	269	11	2723	-314	-5056	-177.443222	6.207174	-1.625012
D:	3795.37	-1786	-719	-16406	36	159	62	2723	-324	-5074	-177.495834	5.827895	-1.763432
D:	3799.01	-1694	-734	-16581	144	125	-2	2723	-324	-5074	-177.470535	6.626873	-1.965090
D:	3802.89	-1896	-678	-16306	93	207	82	2723	-324	-5074	-177.624268	5.467780	-1.759128
D:	3806.68	-1602	-744	-16720	133	84	-73	2723	-324	-5074	-177.457382	6.812728	-2.531007
D:	3810.30	-1945	-570	-16271	64	115	51	2723	-324	-5074	-177.998901	6.326356	-1.803208
D:	3814.03	-1816	-713	-16365	64	80	113	2723	-324	-5074	-177.510513	6.326356	-0.796081
D:	3817.82	-1724	-852	-16538	111	84	244	2716	-316	-5257	-177.056076	5.943640	-0.614523
D:	3821.64	-1848	-857	-16058	99	84	244	2716	-316	-5257	-176.950287	6.555825	-0.627716
D:	3825.17	-1685	-575	-16721	18	61	11	2716	-316	-5257	-178.035751	5.751148	-2.396006
D:	3828.78	-2098	-642	-16531	43	21	24	2716	-316	-5257	-177.781219	7.227738	-1.906812
D:	3832.41	-1648	-916	-16211	41	197	-55	2716	-316	-5257	-176.771164	5.795701	-1.006104
D:	3836.17	-1662	-508	-16175	128	86	-3	2728	-344	-5083	-178.206390	5.863921	-3.261365
D:	3839.80	-1841	-755	-16373	16	-179	61	2728	-344	-5083	-178.206390	6.408896	-1.912316
D:	3843.37	-1841	-755	-16373	15	-186	52	2728	-344	-5083	-177.365051	6.282344	-1.892437
D:	3846.88	-1850	-779	-16787	-68	46	-57	2728	-344	-5083	-177.348328	6.541753	-2.504850
D:	3850.48	-1870	-641	-16295	-49	265	-47	2728	-344	-5083	-177.752548	5.581569	-2.149217
D:	3854.06	-1618	-727	-16541	-49	245	-58	2728	-344	-5083	-177.488617	6.464586	-1.439929
D:	3857.58	-1886	-779	-16627	-10	245	-58	2728	-334	-5349	-177.322800	6.464559	-1.443598
D:	3861.36	-1860	-647	-16273	-115	308	-135	2715	-334	-5349	-177.728409	6.515685	-2.179346
D:	3865.29	-1492	-692	-16510	-51	285	-25	2715	-334	-5349	-177.605133	5.159410	-1.972272
D:	3868.90	-1781	-701	-16257	11	282	-85	2715	-334	-5349	-177.536179	6.246408	-1.802125
D:	3872.68	-1751	-741	-16712	39	103	-50	2715	-334	-5349	-177.466431	5.975690	-1.700666
D:	3876.38	-1749	-670	-16361	100	162	-34	2715	-334	-5349	-177.660217	6.096886	-2.012486
D:	3879.89	-1809	-701	-16265	-38	232	-22	2723	-344	-5198	-177.660217	6.340727	-2.091936
D:	3883.63	-1809	-738	-16459	-21	269	-5	2723	-344	-5198	-177.537384	6.252368	-1.938634
D:	3887.46	-1805	-738	-16459	26	301	-28	2723	-344	-5198	-177.437881	6.459585	-2.608056
D:	3891.04	-1849	-609	-16320	39	252	-36	2723	-344	-5198	-177.868179	6.329936	-2.509756
D:	3894.77	-1808	-627	-16287	56	222	29	2723	-344	-5198	-177.800613	5.395641	-2.034244
D:	3898.43	-1569	-735	-16596	210	75	35	2723	-344	-5198	-177.469391	6.362578	-1.785921
D:	3902.11	-1820	-685	-16308	210	35	22	2712	-320	-5188	-177.600006	6.610559	-1.454874
D:	3905.80	-1872	-735	-16137	205	35	22	2712	-320	-5188	-177.397369	6.610519	-2.201849
D:	3909.37	-1886	-609	-16334	70	65	81	2712	-320	-5188	-177.870010	6.582132	-2.201849
D:	3912.88	-1805	-643	-16290	179	55	5	2712	-320	-5188	-177.744827	6.318125	-2.018097
D:	3916.72	-1723	-702	-16674	75	19	-117	2712	-320	-5188	-177.594406	5.894682	-2.160275
D:	3920.76	-1746	-662	-16339	-35	201	-31	2705	-342	-5228	-177.685089	6.094748	-2.294938
D:	3924.46	-1696	-635	-16252	-81	104	-24	2705	-342	-5228	-177.767715	5.953282	-2.437186
D:	3928.00	-1813	-632	-16293	-79	46	-110	2705	-342	-5228	-177.783875	6.344910	-2.438006
D:	3931.59	-1813	-632	-16293	-107	92	-45	2705	-342	-5228	-177.783875	6.189670	-2.263794
D:	3935.14	-1796	-675	-16547	-73	6	-52	2705	-342	-5228	-177.669296	5.978677	-2.247977
D:	3938.72	-1729	-678	-16496	-44	32	-92	2705	-342	-5228	-177.651642	6.767570	-0.973347
D:	3942.26	-1950	-720	-16417	-44	47	-130	2715	-287	-5258	-177.494019	5.970877	-0.943988
D:	3946.13	-1712	-726	-16353	-133	77	-34	2715	-287	-5258	-177.463226	5.910629	-1.087250
D:	3949.93	-1692	-700	-16329	-114	143	-69	2715	-287	-5258	-177.550568	5.910622	-1.366895
D:	3953.51	-1819	-645	-16258	-120	143	-69	2715	-287	-5258	-177.733353	6.379108	-1.387635
D:	3957.17	-1663	-765	-16325	-202	172	-71	2715	-287	-5258	-177.322281	5.810399	-1.904476
D:	3961.16	-1801	-1451	-16350	-187	115	-152	2717	-349	-5156	-174.933670	6.261726	1.897634
D:	3964.77	-1846	-941	-16496	-93	151	-886	2717	-349	-5156	-176.740372	6.375081	-0.958806
D:	3968.50	-1463	113	-16612	-160	71	-1379	2717	-349	-5156	179.615555	5.033021	-6.932882
D:	3972.29	-1784	-431	-16341	-161	144	-901	2717	-349	-5156	-178.494431	6.228526	-3.735900
D:	3976.08	-1639	-822	-16562	-66	277	-356	2717	-349	-5156	-177.163864	5.644936	-1.658224
D:	3979.87	-1866	-845	-16802	-166	237	-407	2702	-311	-5213	-177.163864	6.329451	-0.856764
D:	3983.52	-1866	-845	-16802	-112	183	-544	2702	-311	-5213	-177.126160	6.357256	-1.756517
D:	3987.05	-1814	-658	-16269	-153	219	-683	2702	-311	-5213	-177.689163	6.329429	-1.877409
D:	3990.62	-1818	-641	-16378	-114	232	-533	2702	-311	-5213	-177.763947	6.642765	-1.650687
D:	3994.28	-1931	-687	-16567	-158	193	-696	2702	-311	-5213	-177.630661	6.126329	-1.704208
D:	3998.07	-1776	-680	-16533	-158	268	-632	2702	-311	-5213	-177.649994	6.126329	-1.956662
D:	4001.94	-1622	-676	-16401	-109	275	-638	2707	-326	-5246	-177.645020	5.643387	-2.158806
D:	4005.52	-1834	-630	-16328	-120	275	-638	2707	-326	-5246	-177.795639	6.404201	-2.217558
D:	4009.29	-1550	-712	-16388	-150	61	-431	2707	-326	-5246	-177.517517	5.398139	-1.724728
D:	4013.06	-1755	-638	-16279	-97	128	-597	2707	-326	-5246	-177.760880	6.148654	-2.117306
D:	4016.69	-1658	-751	-16560	-181	144	-563	2707	-326	-5246	-177.408630	5.711782	-1.174295
D:	4020.27	-1738	-754	-16369	-154	146	-524	2707	-294	-5037	-177.367889	6.054554	-1.100243
D:	4023.87	-1900	-1618	-16334	-152	235	-615	2717	-294	-5037	-177.367889	6.603096	3.559639
D:	4027.50	-1900	-1618	-16334	-42	142	-1553	2717	-294	-5037	-174.348038	5.806875	1.368374
D:	4031.20	-1703	-1230	-16701	-30	127	-3514	2717	-294	-5037	-175.793060	5.789671	-4.920748
D:	4034.86	-1661	-57	-16382	-83	197	-3385	2717	-294	-5037	-179.805954	5.078574	-10.219855
D:	4038.44	-1475	904	-16573	-75	102	-1805	2717	-294	-5037	176.883011	5.637800	-5.754868
D:	4042.04	-1614	92	-16350	-75	136	-885	2717	-294	-5037	179.682922	5.902245	-0.886366
D:	4045.59	-1677	-808	-16222	-69	136	-885	2708	-312	-5258	-177.153732	5.895082	-0.886366
D:	4049.09	-1817	-1259	-16339	-174	164	-880	2708	-312	-5258	-175.598969	6.327164	1.626083
D:	4052.73	-1873	-488	-16489	-108	44	-1278	2708	-312	-5258	-178.310043	6.477880	-2.724731
D:	4056.26	-1693	-152	-16287	-112	107	-1611	2708	-312	-5258	-179.470596	5.934383	-4.643128
D:	4059.78	-1654	-211	-16498	-162	72	-1307	2708	-312	-5258	-179.470596	5.724738	-4.347409
D:	4063.60	-1654	-211	-16498	-54	40	-788	2709	-298	-5344	-179.272537	6.377966	-2.463040
D:	4067.32	-1832	-480	-16383	-164	20	-427	2709	-298	-5344	-178.327042	6.543418	-0.489312
D:	4071.29	-1886	-829	-16422	-173	94	-594	2709	-298	-5344	-177.115326	6.561557	-0.719743
D:	4075.07	-1874	-781	-16274	-176	183	-819	2709	-298	-5344	-177.257675	5.400960	0.604250
D:	4078.63	-1553	-1018	-16395	-63	215	-1074	2709	-298	-5344	-176.452148	6.111041	0.276874
D:	4082.27	-1757	-962	-16383	-63	51	-1373	2709	-298	-5344	-176.644699	6.503241	-1.556889
D:	4085.95	-1857	-650	-16278	-120	25	-1628	2714	-300	-5269	-177.718567	6.503241	-2.361550
D:	4089.54	-1518	-517	-16195	-105	25	-1628	2714	-300	-5269	-178.176804	5.352286	-2.361550
D:	4093.18	-1801	-555	-16416	-133	114	-1607	2714	-300	-5269	-178.068924	6.257521	-2.131222
D:	4096.73	-1735	-601	-16227	-148	93	-1346	2714	-300	-5269	-177.884155	6.098941	-1.841406
D:	4100.30	-1820	-947	-16288	-208	216	-1401	2714	-300	-5269	-176.677734	6.365236	0.110568
D:	4103.89	-1782	-816	-16394	-250	118	-1599	2726	-249	-5198	-176.677734	6.196170	0.170138
D:	4107.47	-1782	-816	-16394	-177	205	-1840	2726	-249	-5198	-177.155716	5.828780	-1.195031
D:	4111.02	-1654	-565	-16193	-147	16	-2005	2726	-249	-5198	-178.006927	5.946188	-1.462406
D:	4114.59	-1710	-524	-16410	-202	163	-1924	2726	-249	-5198	-178.176315	5.825601	-3.387827
D:	4118.37	-1678	-181	-16446	-198	155	-1429	2726	-249	-5198	-179.374741	5.907291	-2.070652
D:	4122.18	-1701	-416	-16435	-198	164	-1050	2726	-249	-5198	-178.555313	6.174266	-1.263323
D:	4125.91	-1775	-641	-16403	-100	136	-868	2732	-276	-5212	-177.767365	6.171562	-0.943942
D:	4129.48	-1784	-688	-16168	-132	136	-868	2732	-276	-5212	-177.568588	6.291164	-0.951703
D:	4133.27	-1734	-590	-16551	-232	32	-937	2732	-276	-5212	-177.963669	5.977301	-1.583769
D:	4137.12	-1522	-491	-16383	-183	-25	-966	2732	-276	-5212	-178.288620	5.305399	-2.141205
D:	4140.88	-1570	-510	-16291	-112	68	-950	2732	-276	-5212	-178.212158	5.502205	-1.419956
D:	4144.55	-1517	-698	-16698	-116	28	-883	2724	-248	-5366	-177.611588	5.186675	-0.424079
D:	4148.09	-1870	-598	-16495	-71	18	-869	2724	-248	-5366	-177.928986	6.463855	-0.924410
D:	4152.11	-1598	-749	-16458	-102	133	-852	2724	-248	-5366	-177.399506	5.540251	-0.067236
D:	4155.89	-1730	-576	-16564	-117	53	-1025	2724	-248	-5366	-177.399506	5.959146	-1.076132
D:	4159.48	-1730	-576	-16564	-127	49	-1103	2724	-248	-5366	-178.013641	6.280856	-1.484673
D:	4163.04	-1821	-501	-16538	-218	62	-1137	2725	-255	-5282	-178.270081	5.749557	-1.137975
D:	4166.83	-1667	-597	-16546	-75	39	-1193	2725	-255	-5282	-177.938843	5.851479	-0.674583
D:	4170.51	-1650	-660	-16087	-99	75	-1092	2725	-255	-5282	-177.655884	6.788280	-1.391450
D:	4174.20	-1977	-547	-16600	-99	197	-1218	2725	-255	-5282	-178.117935	6.230546	-1.511941
D:	4177.96	-1803	-526	-16507	-53	84	-1161	2725	-255	-5282	-178.180130	6.230546	-1.415019
D:	4181.56	-1509	-542	-16277	-89	84	-1161	2725	-255	-5282	-178.098099	5.293849	-1.119932
D:	4185.15	-1774	-470	-16303	-95	132	-1130	2725	-230	-5040	-178.353943	6.207792	-1.492086
D:	4189.04	-1633	-460	-16278	-126	82	-1036	2721	-230	-5040	-178.386551	5.726613	-1.561794
D:	4192.90	-1457	-529	-16724	-192	238	-936	2721	-230	-5040	-178.193527	4.976725	-1.283614
D:	4196.62	-1659	-643	-16172	-81	128	-711	2721	-230	-5040	-177.728378	5.852763	-0.526245
D:	4200.16	-1713	-745	-16757	-79	83	-771	2721	-230	-5040	-177.459595	5.831291	-0.105377
D:	4203.74	-1713	-745	-16757	-43	195	-885	2721	-230	-5040	-177.459595	5.792554	0.450891
D:	4207.38	-1654	-825	-16284	-57	259	-1021	2721	-244	-5188	-177.104904	6.265008	0.509574
D:	4210.97	-1802	-863	-16392	-69	215	-1253	2721	-244	-5188	-176.991516	6.153926	-0.025817
D:	4214.54	-1794	-777	-16621	-175	110	-1337	2721	-244	-5188	-177.328720	6.595820	-1.015861
D:	4218.27	-1874	-579	-16197	-175	234	-1572	2721	-244	-5188	-177.957947	6.049622	-1.470540
D:	4221.87	-1745	-509	-16458	-119	175	-1625	2721	-244	-5188	-178.233826	6.049622	-1.997566
D:	4225.47	-1686	-417	-16496	-101	175	-1625	2721	-244	-5188	-178.557205	5.834064	-1.489748
D:	4229.03	-1509	-552	-16504	-142	187	-1441	2728	-215	-5171	-178.089630	5.221415	-0.755341
D:	4232.58	-1576	-417	-16080	-60	154	-1206	2728	-215	-5171	-178.519760	5.595974	-1.438975
D:	4236.28	-1726	-641	-16253	-97	99	-1040	2728	-215	-5171	-177.746735	6.057355	-0.194339
D:	4240.03	-1848	-667	-16261	-92	105	-968	2728	-215	-5171	-177.656372	6.478417	-0.050279
D:	4243.75	-1848	-706	-16150	-60	32	-1099	2728	-215	-5171	-177.656372	6.045556	0.194165
D:	4247.39	-1712	-706	-16150	-129	131	-1074	2729	-233	-5197	-177.502151	5.489520	-1.352319
D:	4251.43	-1549	-487	-16111	-106	69	-1218	2729	-233	-5197	-178.273865	5.904179	-0.954685
D:	4255.09	-1669	-555	-16130	-60	126	-1175	2729	-233	-5197	-178.034592	6.076620	-1.999838
D:	4258.63	-1730	-372	-16247	-135	35	-1069	2729	-233	-5197	-178.693634	5.614524	-1.407948
D:	4262.27	-1636	-492	-16635	-135	132	-930	2729	-233	-5197	-178.311157	6.132336	-1.593596
D:	4265.84	-1758	-447	-16357	-85	132	-930	2729	-233	-5197	-178.439896	6.132336	0.324157
D:	4269.42	-1669	-660	-16325	-139	69	-823	2730	-186	-5053	-177.690094	5.832841	0.326450
D:	4273.16	-1597	-540	-16398	-90	95	-851	2730	-186	-5053	-178.119141	5.559659	-0.350002
D:	4276.81	-1729	-661	-16367	-74	172	-941	2730	-186	-5053	-177.692551	6.025628	0.318752
D:	4280.62	-1683	-701	-16241	22	71	-1069	2730	-186	-5053	-177.533752	5.910962	0.567778
D:	4284.41	-1722	-571	-16369	18	53	-1075	2730	-186	-5053	-178.007401	6.001915	-0.564440
D:	4288.06	-1726	-592	-16713	1	38	-1082	2734	-216	-5268	-177.976593	5.892703	-0.516251
D:	4291.65	-1726	-592	-16713	-41	95	-1017	2734	-216	-5268	-177.976593	6.096836	-1.329065
D:	4295.27	-1746	-434	-16341	-86	156	-922	2734	-216	-5268	-178.483887	5.772516	-0.737803
D:	4299.10	-1680	-549	-16610	-168	203	-872	2734	-216	-5268	-178.112183	5.625793	0.124531
D:	4302.86	-1637	-703	-16604	61	182	-1209	2734	-216	-5268	-177.580826	6.090830	0.720720
D:	4306.48	-1739	-795	-16278	19	105	-1183	2734	-216	-5268	-177.209183	6.278111	0.795752
D:	4310.02	-1790	-767	-16253	19	33	-1410	2744	-197	-5144	-177.303375	6.142313	0.049598
D:	4313.59	-1763	-636	-16371	-21	33	-1410	2744	-197	-5144	-177.780457	6.142102	0.050258
D:	4317.13	-1592	-622	-16131	-81	500	-1649	2744	-197	-5144	-177.797058	5.632388	0.023875
D:	4320.74	-1700	-549	-16333	0	163	-1720	2744	-197	-5144	-178.080109	5.939009	-0.423005
D:	4324.42	-1845	-526	-16273	-89	117	-1675	2744	-197	-5144	-178.153900	6.465301	-0.481090
D:	4328.03	-1601	-682	-16661	-54	143	-1653	2747	-197	-5232	-177.661209	5.484448	0.303807
D:	4331.77	-1703	-724	-16031	-186	93	-1529	2747	-197	-5232	-177.661209	6.057934	0.684748
D:	4335.52	-1703	-724	-16031	-13	24	-1592	2747	-197	-5232	-177.419373	4.990448	-0.374920
D:	4339.06	-1451	-559	-16608	-72	-6	-1589	2747	-197	-5232	-178.077484	5.834462	-1.099253
D:	4342.59	-1680	-422	-16436	-59	132	-1533	2747	-197	-5232	-178.534500	6.475424	0.333181
D:	4346.12	-1860	-677	-16374	-59	113	-1547	2747	-197	-5232	-177.637634	5.780684	0.630347
D:	4349.64	-1651	-723	-16293	-85	113	-1547	2747	-197	-5249	-177.464417	5.780659	1.453116
D:	4353.27	-1830	-823	-16287	-87	70	-1669	2751	-150	-5249	-177.112457	6.402928	1.985899
D:	4356.89	-1504	-727	-16541	-144	56	-1837	2751	-150	-5249	-177.488617	5.190535	1.436678
D:	4360.55	-1675	-548	-16223	-104	-53	-1923	2751	-150	-5249	-178.070572	5.891652	0.477402
D:	4364.29	-1694	-448	-16201	-54	-85	-1977	2751	-150	-5249	-178.421295	5.967150	-0.084671
D:	4368.14	-1677	-708	-16468	-106	-24	-1796	2751	-150	-5249	-177.543472	5.809448	1.325080
D:	4371.92	-1722	-582	-16173	-126	-24	-1764	2763	-161	-5280	-177.543472	6.073876	0.502304
D:	4375.64	-1722	-582	-16173	52	-50	-1820	2763	-161	-5280	-177.944305	5.601956	-0.404141
D:	4379.17	-1656	-441	-16878	-114	-42	-1749	2763	-161	-5280	-178.508545	6.439432	-0.892144
D:	4382.79	-1859	-340	-16468	-56	96	-1527	2763	-161	-5280	-178.822510	5.819346	-0.161365
D:	4386.42	-1678	-473	-16458	-14	155	-1314	2763	-161	-5280	-178.359039	5.651304	0.343153
D:	4390.03	-1650	-570	-16665	-14	89	-1357	2763	-161	-5280	-178.046295	5.866167	0.548469
D:	4393.60	-1692	-537	-16460	-44	89	-1357	2764	-143	-5351	-178.136658	5.866159	0.548469
D:	4397.13	-1580	-590	-16849	-25	43	-1299	2764	-143	-5351	-177.999756	5.354090	0.781478
D:	4400.74	-1725	-399	-16238	-107	168	-1207	2764	-143	-5351	-178.597687	6.062282	-0.199043
D:	4404.37	-1584	-508	-16472	-95	105	-1170	2764	-143	-5351	-178.238800	5.490422	0.386535
D:	4408.17	-1733	-672	-16616	-56	80	-1007	2764	-143	-5351	-177.689301	5.949601	1.046049
D:	4412.05	-1715	-629	-16428	8	94	-869	2753	-154	-5293	-177.812561	5.955645	0.847405
D:	4415.78	-1689	-644	-16597	-26	24	-839	2753	-154	-5293	-177.783157	5.806554	0.898288
D:	4420.37	-1694	-576	-16319	-19	49	-884	2753	-154	-5293	-177.983765	5.922897	0.572180
D:	4424.87	-1745	-668	-16545	67	0	-1068	2753	-154	-5293	-177.693207	6.016035	1.032131
D:	4429.33	-1763	-675	-16138	-91	-1	-1138	2753	-154	-5293	-177.610153	6.229348	1.254232
D:	4433.82	-1793	-610	-16223	53	-10	-1497	2764	-128	-5347	-177.851883	5.836637	1.334623
D:	4438.27	-1672	-626	-16345	-233	55	-1772	2764	-128	-5347	-177.811935	5.754365	2.494916
D:	4441.90	-1654	-832	-16394	-31	17	-1740	2764	-128	-5347	-177.099930	5.753925	2.624311
D:	4445.51	-1641	-863	-16576	-79	17	-1740	2764	-128	-5347	-177.024918	5.646347	2.624311
D:	4449.08	-1685	-780	-16269	-50	-4	-2009	2764	-128	-5347	-177.260330	5.906548	2.331176
D:	4452.58	-1858	-571	-16440	-58	48	-2389	2751	-119	-5269	-178.016037	6.444375	1.102122
D:	4456.37	-1553	-452	-16144	-66	-235	-2440	2751	-119	-5269	-178.401520	5.492782	0.503739
D:	4460.05	-1608	-638	-16300	-18	-13	-2416	2751	-119	-5269	-177.763763	5.629900	1.534184
D:	4463.84	-1732	-592	-16404	-106	95	-2262	2751	-119	-5269	-177.763763	6.023472	1.238609
D:	4467.62	-1732	-592	-16404	-98	43	-2343	2751	-119	-5269	-177.938416	6.468790	1.847993
D:	4471.16	-1859	-704	-16381	14	-115	-2639	2759	-76	-5108	-177.544357	5.294322	4.029801
D:	4474.83	-1544	-987	-16633	-56	-109	-3046	2759	-76	-5108	-176.609283	6.398833	2.500081
D:	4478.71	-1842	-709	-16410	21	-62	-3386	2759	-76	-5108	-177.531281	5.344814	2.430184
D:	4482.40	-1521	-677	-16244	38	-100	-3521	2759	-76	-5108	-177.618713	5.910933	2.229926
D:	4486.06	-1704	-655	-16446	38	5	-3624	2759	-76	-5108	-177.724503	5.910933	0.862394
D:	4489.59	-1638	-402	-16432	-18	5	-3624	2759	-76	-5108	-178.603851	5.691117	0.848903
D:	4493.28	-1536	-406	-16676	-120	32	-3593	2758	-80	-5248	-178.610611	5.261180	0.819183
D:	4497.02	-1848	-391	-16052	-118	-40	-3131	2758	-80	-5248	-178.609924	6.565575	0.820256
D:	4500.81	-1687	-408	-16302	5	19	-2878	2758	-80	-5248	-178.571594	5.906518	0.895644
D:	4504.56	-1720	-427	-16461	-133	-81	-2573	2758	-80	-5248	-178.519333	5.963340	0.977688
D:	4508.11	-1533	-413	-16198	-64	141	-2245	2758	-80	-5248	-178.544724	5.404858	0.951139
D:	4511.77	-1670	-540	-16505	-81	20	-2038	2758	-80	-5353	-178.544724	5.774709	1.659255
D:	4515.42	-1670	-540	-16505	-3	19	-1880	2779	-23	-5353	-178.131363	5.765325	2.847762
D:	4519.17	-1648	-571	-16313	49	19	-1991	2779	-23	-5353	-178.000549	5.590542	3.662166
D:	4523.08	-1601	-713	-16341	-24	138	-2184	2779	-23	-5353	-177.506851	5.902086	3.572482
D:	4526.65	-1709	-710	-16517	210	85	-2277	2779	-23	-5353	-177.543839	6.255493	1.952809
D:	4530.17	-1798	-420	-16398	210	124	-2288	2779	-23	-5353	-178.538086	6.255493	1.998475
D:	4533.86	-1583	-420	-16345	13	27	-2003	2779	-23	-5353	-178.533325	5.530147	1.547931
D:	4537.62	-1987	-397	-16370	42	27	-2003	2765	-37	-5296	-178.616028	6.918928	1.452767
D:	4541.43	-1707	-371	-16269	52	-8	-1850	2765	-37	-5296	-178.698914	5.988387	1.447502
D:	4545.29	-1751	-393	-16308	-52	-22	-1595	2765	-37	-5296	-178.624786	6.126821	1.565875
D:	4548.94	-1682	-542	-16518	25	45	-1544	2765	-37	-5296	-178.125900	5.811357	2.381663
D:	4552.50	-1534	-767	-16241	23	93	-1461	2765	-37	-5296	-177.301392	5.389898	4.265068
D:	4556.05	-1904	-720	-16201	3	4	-1462	2784	-6	-5294	-177.301392	6.696508	3.874888
D:	4559.60	-1904	-720	-16201	39	101	-1707	2784	-6	-5294	-177.460587	5.733567	5.649916
D:	4563.36	-1659	-1037	-16491	-18	-125	-2194	2784	-6	-5294	-176.407028	6.284974	3.582055
D:	4567.49	-1848	-637	-16307	59	26	-2703	2784	-6	-5294	-177.768234	6.460798	3.415929
D:	4572.78	-1610	-351	-16371	10	78	-2870	2784	-6	-5294	-178.777008	5.615554	2.533936
D:	4577.47	-1847	-411	-16233	-52	84	-2976	2781	15	-5282	-178.554932	6.382107	1.895609
D:	4582.15	-1842	-299	-16466	-43	56	-2423	2781	15	-5282	-178.964981	6.216102	2.042377
D:	4586.77	-1776	-321	-16303	33	-75	-2185	2781	15	-5282	-178.877289	5.696816	2.631881
D:	4591.48	-1643	-421	-16398	-34	-88	-2040	2781	15	-5282	-178.526657	5.989580	2.599173
D:	4595.42	-1721	-421	-16398	-234	15	-1900	2789	38	-5189	-178.534576	5.744987	3.642210
D:	4599.07	-1651	-543	-16402	9	-30	-1856	2789	38	-5189	-178.109131	6.513577	4.984989
D:	4602.77	-1854	-798	-16219	-36	-55	-1913	2789	38	-5189	-177.188461	6.284925	4.584052
D:	4606.36	-1813	-729	-16446	2	22	-2137	2789	38	-5189	-177.467148	5.920960	5.202273
D:	4609.99	-1717	-840	-16535	2	64	-2252	2789	38	-5189	-177.097015	5.920960	4.792037
D:	4613.67	-1621	-751	-16398	-58	64	-2252	2789	38	-5189	-177.383026	5.639842	4.558543
D:	4617.52	-1704	-691	-16376	-64	143	-2437	2795	41	-5326	-177.589035	5.935449	4.558543
D:	4621.09	-1483	-406	-16382	-12	96	-2652	2795	41	-5326	-178.585587	5.171243	3.033610
D:	4624.65	-1763	-166	-16327	8	106	-2628	2795	41	-5326	-179.422791	6.162822	1.626646
D:	4628.26	-1675	-171	-16521	-32	111	-2409	2795	41	-5326	-179.412277	5.789077	1.659493
D:	4631.88	-1700	-442	-16496	56	98	-2002	2795	41	-5326	-179.412277	5.881939	3.160617
D:	4635.55	-1700	-442	-16496	1	71	-1741	2788	72	-5441	-178.470428	6.725012	4.053337
D:	4639.08	-1917	-506	-16250	59	136	-1734	2788	72	-5441	-178.221741	6.605246	4.594569
D:	4642.66	-1901	-606	-16406	42	10	-1733	2788	72	-5441	-177.889816	6.259660	3.503738
D:	4646.26	-1777	-399	-16196	42	23	-1647	2788	72	-5441	-178.594040	5.886184	4.237659
D:	4649.81	-1697	-529	-16456	21	23	-1647	2788	72	-5441	-178.164047	5.884883	3.808883
D:	4653.62	-1739	-453	-16326	69	51	-1789	2788	72	-5441	-178.415878	6.077919	5.463684
D:	4657.29	-1746	-659	-16153	-19	83	-1744	2792	103	-5329	-177.669022	6.164320	5.463684
D:	4660.97	-1709	-731	-16228	51	43	-1965	2792	103	-5329	-177.426041	6.005895	5.870399
D:	4664.58	-1834	-672	-16343	23	47	-2073	2792	103	-5329	-177.650635	6.397732	5.459733
D:	4668.37	-1311	-549	-16669	-45	77	-2254	2792	103	-5329	-178.118881	4.494704	4.970855
D:	4671.97	-1703	-479	-16353	-65	37	-2360	2792	103	-5329	-178.118881	5.942991	4.449626
D:	4675.49	-1703	-479	-16353	-31	-44	-2466	2792	103	-5287	-178.327469	5.181358	4.829264
D:	4679.16	-1475	-530	-16258	115	-22	-2436	2803	108	-5287	-178.138123	5.109206	4.438405
D:	4682.94	-1484	-456	-16592	47	-82	-2230	2803	108	-5287	-178.430984	6.004856	4.911440
D:	4686.60	-1733	-558	-16466	44	-65	-2121	2803	108	-5287	-178.064346	5.916807	5.251172
D:	4690.14	-1746	-632	-16836	44	-101	-2192	2803	108	-5287	-177.855453	6.406941	5.017669
D:	4693.74	-1844	-585	-16410	-43	-101	-2192	2803	108	-5287	-177.963577	6.407613	6.629266
D:	4697.36	-1730	-875	-16501	63	-109	-2390	2803	108	-5287	-176.969833	5.976986	7.120020
D:	4701.08	-1696	-377	-16414	16	-127	-2596	2789	132	-5348	-178.689529	5.897863	4.383891
D:	4704.82	-1770	-439	-16269	26	-31	-2865	2789	132	-5348	-178.459595	6.207064	4.713149
D:	4708.42	-1766	-445	-16504	-1	-33	-2817	2789	132	-5348	-178.460754	6.105637	4.723742
D:	4712.16	-1734	-271	-16244	-60	-44	-2581	2789	132	-5348	-179.049500	6.092423	3.788393
D:	4716.03	-1643	-405	-16659	81	10	-2387	2789	132	-5348	-178.612610	5.631115	4.538744
D:	4719.87	-1651	-399	-16565	24	62	-2090	2796	149	-5492	-178.612610	5.690286	4.832516
D:	4723.69	-1651	-390	-16114	23	-22	-1842	2796	149	-5492	-178.625458	5.756962	4.834629
D:	4727.42	-1625	-390	-16114	98	27	-1604	2796	149	-5492	-178.618851	6.306870	4.930561
D:	4731.01	-1794	-422	-16227	-11	-32	-1412	2796	149	-5492	-178.515564	6.171281	5.602933
D:	4734.75	-1782	-545	-16472	38	36	-1342	2796	149	-5492	-178.110245	5.751576	5.861697
D:	4738.62	-1650	-576	-16372	85	-10	-1340	2796	149	-5492	-177.990295	6.199090	6.318229
D:	4742.12	-1765	-624	-16238	85	38	-1365	2794	164	-5428	-177.804550	6.199090	7.133107
D:	4745.65	-1634	-754	-16233	20	38	-1365	2794	164	-5428	-177.345840	5.742003	6.831639
D:	4749.27	-1649	-704	-16281	40	118	-1738	2794	164	-5428	-177.529266	5.778214	6.786407
D:	4752.99	-1724	-606	-16307	-19	97	-1893	2794	164	-5428	-177.876999	6.031023	6.230227
D:	4756.59	-1624	-529	-16171	28	50	-1936	2794	164	-5428	-178.131607	5.731921	5.868748
D:	4760.10	-1685	-248	-16422	71	30	-1989	2804	208	-5389	-179.140076	5.857913	4.952945
D:	4763.64	-1685	-248	-16422	6	88	-1749	2804	208	-5389	-179.140076	5.725269	6.714414
D:	4767.47	-1629	-554	-16239	72	-19	-1814	2804	208	-5389	-178.051331	6.214017	6.816659
D:	4771.28	-1776	-590	-16301	47	25	-1721	2804	208	-5389	-177.932388	5.813608	7.038135
D:	4775.13	-1707	-634	-16754	17	19	-1688	2804	208	-5389	-177.838104	6.180921	6.747916
D:	4778.93	-1774	-579	-16371	120	-74	-1841	2795	201	-5341	-177.979706	5.943063	5.660473
D:	4782.50	-1698	-395	-16307	108	-83	-1856	2795	201	-5341	-178.617676	6.059812	5.840297
D:	4786.10	-1778	-442	-16743	108	-20	-1608	2795	201	-5341	-178.493057	5.907451	4.491562
D:	4789.79	-1670	-183	-16141	32	-20	-1608	2795	201	-5341	-179.355713	5.906786	5.797369
D:	4793.36	-1416	-399	-16703	-32	-47	-1329	2795	201	-5341	-178.636841	4.844442	5.611307
D:	4796.96	-1734	-379	-16299	-14	83	-1043	2795	201	-5341	-178.673203	6.071228	5.679418
D:	4800.73	-1765	-691	-16489	-69	129	-874	2793	208	-5357	-177.605560	6.104600	7.360173
D:	4804.52	-1889	-778	-16454	-254	-115	-827	2793	208	-5357	-177.298126	6.542112	7.755706
D:	4808.09	-1744	-953	-16342	67	16	-1122	2793	208	-5357	-176.667725	6.081412	8.834786
D:	4811.64	-1744	-953	-16342	-8	50	-1630	2793	208	-5357	-176.667725	6.033017	7.521641
D:	4815.19	-1732	-713	-16373	-56	8	-1854	2793	208	-5357	-177.511719	5.776958	5.701141
D:	4819.01	-1636	-372	-16167	1	-48	-1851	2777	231	-5343	-178.687134	5.680905	6.733499
D:	4822.76	-1628	-483	-16359	55	-40	-1719	2777	231	-5343	-178.314087	6.006981	7.399506
D:	4826.42	-1735	-618	-16477	82	-90	-1784	2777	231	-5343	-177.857254	6.121006	7.993464
D:	4830.12	-1750	-723	-16303	82	-8	-1805	2777	231	-5343	-177.465973	6.121006	7.367653
D:	4834.02	-1765	-616	-16485	-30	30	-1825	2777	231	-5343	-177.865265	6.107159	6.081743
D:	4837.71	-1696	-373	-16316	49	30	-1825	2777	231	-5343	-178.695648	5.933050	6.133172
D:	4841.26	-1737	-631	-16488	35	127	-1892	2777	231	-5599	-177.813583	6.009700	7.844062
D:	4844.80	-1774	-476	-16062	15	-30	-1806	2796	252	-5502	-178.307800	6.300045	6.994210
D:	4848.39	-1535	-573	-16540	53	10	-1980	2796	252	-5502	-178.021118	5.299161	7.655298
D:	4851.99	-1777	-481	-16658	157	46	-1809	2796	252	-5502	-178.021118	6.086689	6.963663
D:	4855.65	-1777	-481	-16658	61	34	-1801	2796	252	-5502	-178.351318	5.283982	6.724700
D:	4859.38	-1549	-414	-16744	5	68	-1690	2796	252	-5502	-178.588882	5.456182	6.471639
D:	4863.05	-1576	-369	-16496	53	-65	-1508	2799	265	-5454	-178.723831	5.984336	7.672168
D:	4866.73	-1713	-559	-16332	10	94	-1325	2799	265	-5454	-178.044937	5.377473	7.684072
D:	4870.46	-1555	-545	-16511	-7	46	-1217	2799	265	-5454	-178.114716	5.664283	7.112521
D:	4874.09	-1637	-453	-16499	-7	2	-1089	2799	265	-5454	-178.432526	5.297439	7.956830
D:	4877.64	-1541	-594	-16610	8	2	-1089	2799	265	-5454	-177.957138	5.297257	7.823181
D:	4881.16	-1719	-622	-16534	42	93	-1150	2799	265	-5454	-177.850830	5.931588	8.103415
D:	4884.80	-1782	-679	-16437	31	55	-1213	2810	276	-5329	-177.639740	6.182446	8.378438
D:	4888.36	-1495	-530	-16530	56	63	-1281	2810	276	-5329	-178.168823	5.165376	7.760734
D:	4892.10	-1754	-527	-16347	13	90	-1248	2810	276	-5329	-178.158768	6.121315	7.585422
D:	4895.92	-1492	-410	-16559	98	84	-1235	2810	276	-5329	-178.158768	5.147148	7.096348
D:	4899.50	-1492	-410	-16559	-16	43	-1109	2810	276	-5329	-178.586929	5.703934	7.868501
D:	4903.16	-1638	-565	-16390	25	128	-1046	2793	276	-5306	-178.030914	5.432433	7.340572
D:	4906.74	-1546	-450	-16251	-1	24	-859	2793	276	-5306	-178.419098	5.525351	7.527871
D:	4910.36	-1609	-498	-16626	56	52	-848	2793	276	-5306	-178.289581	6.219507	7.195901
D:	4913.92	-1765	-449	-16190	56	51	-775	2793	276	-5306	-178.416672	6.219507	7.656548
D:	4917.75	-1782	-545	-16717	11	51	-775	2793	276	-5306	-178.137985	6.081615	7.948575
D:	4921.51	-1861	-603	-16405	-1	69	-699	2793	276	-5306	-177.900177	6.467885	8.365562
D:	4925.30	-1720	-589	-16337	-11	-2	-724	2793	294	-5543	-177.940460	6.006404	8.365562
D:	4928.94	-1702	-529	-16317	65	154	-813	2793	294	-5543	-178.148361	5.951967	8.041232
D:	4932.46	-1670	-469	-16297	-8	79	-814	2793	294	-5543	-178.356827	5.848607	7.724629
D:	4936.31	-1701	-479	-16644	52	22	-856	2793	294	-5543	-178.356796	5.833086	7.727950
D:	4940.10	-1700	-497	-16291	9	111	-743	2793	294	-5543	-178.257843	5.954798	7.863203
D:	4943.80	-1551	-488	-16359	-199	47	-624	2798	301	-5446	-178.257843	5.413800	7.995344
D:	4947.41	-1551	-488	-16359	-15	40	-604	2798	301	-5446	-178.296600	6.104665	7.596242
D:	4951.05	-1721	-435	-16086	49	83	-623	2798	301	-5446	-178.456223	6.050893	8.636655
D:	4954.79	-1742	-630	-16422	14	97	-535	2798	301	-5446	-177.808289	5.769471	8.566481
D:	4958.48	-1658	-605	-16399	77	85	-546	2798	301	-5446	-177.892410	6.314845	8.302567
D:	4962.17	-1803	-575	-16283	-179	188	-704	2798	301	-5446	-177.982803	5.600614	8.136314
D:	4965.99	-1598	-552	-16287	-35	29	-754	2794	292	-5297	-178.064117	6.075019	8.101516
D:	4969.84	-1732	-563	-16265	-10	119	-755	2794	292	-5297	-178.022797	4.952163	8.045120
D:	4973.67	-1429	-517	-16483	70	119	-755	2794	292	-5297	-178.208725	4.952613	7.400829
D:	4977.37	-1545	-413	-16299	124	102	-938	2794	292	-5297	-178.553757	5.413383	7.400829
D:	4980.88	-1555	-484	-16271	-11	211	-677	2794	292	-5297	-178.301437	5.456871	8.220150
D:	4984.62	-1613	-592	-16337	42	136	-442	2787	315	-5361	-177.929947	5.635197	8.771439
D:	4988.15	-1746	-513	-16359	67	8	-331	2787	315	-5361	-178.209122	6.089339	8.230081
D:	4991.71	-1746	-513	-16359	130	-49	-362	2787	315	-5361	-178.209122	6.275050	8.536070
D:	4995.26	-1790	-573	-16269	99	-36	-478	2787	315	-5361	-177.988113	5.993904	9.283270
D:	4998.94	-1724	-703	-16405	37	8	-598	2787	315	-5361	-177.551453	5.556858	9.336050
D:	5002.77	-1606	-697	-16493	90	11	-725	2787	315	-5361	-177.585342	5.441468	8.628303
D:	5006.60	-1559	-559	-16357	54	124	-673	2787	315	-5361	-178.047928	6.275013	8.104590
D:	5010.26	-1795	-500	-16317	54	12	-669	2805	317	-5310	-178.250092	6.275013	7.636003
D:	5013.88	-1412	-366	-16340	77	56	-514	2805	317	-5310	-178.722107	4.937785	7.968920
D:	5017.61	-1515	-444	-16692	19	56	-514	2805	317	-5310	-178.481583	5.184402	7.824028
D:	5021.18	-1665	-502	-16140	177	38	-247	2805	317	-5310	-178.223770	5.887137	8.226334
D:	5024.92	-1568	-484	-16444	164	69	-109	2805	317	-5310	-178.319336	5.444726	8.379635
D:	5028.64	-1727	-533	-16261	17	31	-39	2788	327	-5296	-178.127899	6.059323	8.544821
D:	5032.15	-1611	-640	-16795	45	131	15	2788	327	-5296	-177.822952	5.475340	9.154984
D:	5035.74	-1611	-640	-16795	94	60	40	2788	327	-5296	-177.822952	6.273562	8.599168
D:	5039.50	-1816	-560	-16510	82	179	2	2788	327	-5296	-178.062576	6.058646	8.159904
D:	5043.27	-1739	-466	-16378	142	143	59	2788	327	-5296	-178.375488	5.472155	9.185999
D:	5046.91	-1591	-638	-16596	226	170	14	2799	312	-5445	-177.803696	5.949797	8.070096
D:	5050.61	-1688	-484	-16190	99	166	54	2799	312	-5445	-178.292908	4.750947	9.206847
D:	5054.27	-1371	-646	-16484	99	71	26	2799	312	-5445	-177.760986	4.750947	8.547829
D:	5057.87	-1758	-577	-16110	74	152	13	2799	312	-5445	-177.954010	6.223970	8.873269
D:	5061.53	-1733	-641	-16513	121	152	13	2799	312	-5445	-177.782242	5.986825	8.436825
D:	5065.30	-1634	-544	-16309	39	40	-56	2799	312	-5445	-178.094818	5.718385	8.812786
D:	5069.07	-1659	-486	-16335	61	142	-29	2802	339	-5268	-178.301086	5.796760	8.492921
D:	5072.85	-1541	-596	-16121	114	141	-81	2802	339	-5268	-177.887955	5.456746	9.212848
D:	5076.46	-1713	-587	-16259	98	-218	-102	2802	339	-5268	-177.937592	6.010616	9.006734
D:	5080.07	-1604	-607	-16618	89	142	-61	2802	339	-5268	-177.937592	5.509727	9.160706
D:	5083.94	-1725	-705	-16492	70	50	-58	2802	339	-5268	-177.913345	5.965973	9.601230
D:	5087.72	-1725	-705	-16492	82	6	-229	2793	338	-5418	-177.557465	6.346217	9.276616
