Syntax version=4
Wed May 02 10:43:07 2018
Starting process (2533211 clocks per sec)

LogRawData=false
VarHeader=1
D:		imu_acc_x	imu_acc_y	imu_acc_z	imu_gyro_x	imu_gyro_y	imu_gyro_z	imu_mag_x	imu_mag_y	imu_mag_z
D:	time(ms)	(0x20000236,3)	(0x20000238,3)	(0x2000023a,3)	(0x2000022a,3)	(0x2000022c,3)	(0x2000022e,3)	(0x20000230,3)	(0x20000232,3)	(0x20000234,3)
D:	0.07	-1709	11104	11555	3	80	-437	1408	-3167	4414
D:	1.18	-1709	11104	11555	3	80	-437	1408	-3167	4414
D:	2.21	-1709	11104	11555	101	124	-408	1408	-3167	4414
D:	3.16	-1709	11104	11555	101	124	-408	1408	-3167	4414
D:	4.13	-1682	11210	11659	101	124	-408	1408	-3167	4414
D:	5.03	-1682	11210	11659	101	124	-408	1408	-3167	4414
D:	5.91	-1682	11210	11659	101	58	-392	1408	-3167	4414
D:	6.78	-1682	11210	11659	33	58	-392	1413	-3172	4555
D:	7.66	-1682	11184	11703	33	58	-392	1413	-3172	4555
D:	8.54	-1741	11184	11703	33	58	-392	1413	-3172	4555
D:	9.41	-1741	11184	11703	33	58	-392	1413	-3172	4555
D:	10.30	-1741	11184	11703	-32	131	-411	1413	-3172	4555
D:	11.32	-1741	11184	11703	-32	131	-411	1413	-3172	4555
D:	12.22	-1637	11158	11515	-32	131	-411	1413	-3172	4555
D:	13.12	-1637	11158	11515	-32	131	-411	1413	-3172	4555
D:	14.01	-1637	11158	11515	-32	55	-385	1413	-3172	4555
D:	14.89	-1637	11158	11515	52	55	-385	1413	-3172	4555
D:	15.76	-1797	11240	11806	52	55	-385	1413	-3172	4555
D:	16.65	-1797	11240	11806	52	55	-385	1413	-3172	4555
D:	17.54	-1797	11240	11806	52	55	-385	1413	-3172	4555
D:	18.43	-1797	11240	11806	55	64	-394	1413	-3172	4555
D:	19.35	-1797	11240	11806	55	64	-394	1413	-3172	4555
D:	20.24	-1768	11178	11920	55	64	-394	1413	-3172	4555
D:	21.24	-1768	11178	11920	55	64	-394	1413	-3172	4555
D:	22.13	-1768	11178	11920	55	165	-240	1413	-3172	4555
D:	23.02	-1768	11178	11920	33	165	-240	1413	-3172	4555
D:	23.91	-1736	11058	11474	33	165	-240	1413	-3172	4555
D:	24.79	-1736	11058	11474	33	165	-240	1413	-3172	4555
D:	25.67	-1736	11058	11474	33	165	-240	1413	-3172	4555
D:	26.56	-1736	11058	11474	33	70	-254	1413	-3172	4555
D:	27.44	-1736	11058	11474	33	70	-254	1408	-3163	4515
D:	28.33	-1854	11276	11910	33	70	-254	1408	-3163	4515
D:	29.20	-1854	11276	11910	33	70	-254	1408	-3163	4515
D:	30.11	-1854	11276	11910	33	38	-190	1408	-3163	4515
D:	30.99	-1854	11276	11910	10	38	-190	1408	-3163	4515
D:	31.84	-1681	11182	11794	10	38	-190	1408	-3163	4515
D:	32.81	-1681	11182	11794	10	38	-190	1408	-3163	4515
D:	33.78	-1681	11182	11794	10	-48	-201	1408	-3163	4515
D:	34.66	-1681	11182	11794	78	-48	-201	1408	-3163	4515
D:	35.55	-1681	11182	11794	78	-48	-201	1408	-3163	4515
D:	36.49	-1630	11128	11587	78	-48	-201	1408	-3163	4515
D:	37.48	-1630	11128	11587	78	-48	-201	1408	-3163	4515
D:	38.37	-1630	11128	11587	23	-111	-132	1408	-3163	4515
D:	39.30	-1630	11128	11587	23	-111	-132	1408	-3163	4515
D:	40.25	-1753	11231	11835	23	-111	-132	1408	-3163	4515
D:	41.35	-1753	11231	11835	23	-111	-132	1408	-3163	4515
D:	42.28	-1753	11231	11835	68	-116	-98	1408	-3163	4515
D:	43.25	-1753	11231	11835	68	-116	-98	1408	-3163	4515
D:	44.12	-1707	11154	11563	68	-116	-98	1408	-3163	4515
D:	45.02	-1707	11154	11563	68	-116	-98	1408	-3163	4515
D:	45.89	-1707	11154	11563	68	-69	-51	1408	-3163	4515
D:	46.79	-1707	11154	11563	137	-69	-51	1417	-3185	4499
D:	47.67	-1707	11133	11760	137	-69	-51	1417	-3185	4499
D:	48.59	-1539	11133	11760	137	-69	-51	1417	-3185	4499
D:	49.57	-1539	11133	11760	137	-69	-51	1417	-3185	4499
D:	50.49	-1539	11133	11760	42	237	-30	1417	-3185	4499
D:	51.39	-1539	11133	11760	42	237	-30	1417	-3185	4499
D:	52.26	-1553	11190	11922	42	237	-30	1417	-3185	4499
D:	53.21	-1553	11190	11922	42	237	-30	1417	-3185	4499
D:	54.11	-1553	11190	11922	42	-12	52	1417	-3185	4499
D:	54.99	-1553	11190	11922	86	-12	52	1417	-3185	4499
D:	55.86	-1611	11098	11356	86	-12	52	1417	-3185	4499
D:	56.76	-1611	11098	11356	86	-12	52	1417	-3185	4499
D:	57.65	-1611	11098	11356	86	-12	52	1417	-3185	4499
D:	58.54	-1611	11098	11356	144	0	88	1417	-3185	4499
D:	59.41	-1611	11098	11356	144	0	88	1417	-3185	4499
D:	60.29	-1718	11154	11888	144	0	88	1417	-3185	4499
D:	61.21	-1718	11154	11888	144	0	88	1417	-3185	4499
D:	62.12	-1718	11154	11888	144	65	69	1417	-3185	4499
D:	62.99	-1718	11154	11888	84	65	69	1417	-3185	4499
D:	63.89	-1613	11150	11795	84	65	69	1417	-3185	4499
D:	64.76	-1613	11150	11795	84	65	69	1417	-3185	4499
D:	65.65	-1613	11150	11795	84	65	69	1417	-3185	4499
D:	66.53	-1613	11150	11795	150	73	124	1417	-3185	4499
D:	67.41	-1613	11150	11795	150	73	124	1417	-3153	4618
D:	68.31	-1611	11159	11619	150	73	124	1417	-3153	4618
D:	69.55	-1611	11159	11619	150	73	124	1417	-3153	4618
D:	70.68	-1611	11159	11619	16	105	151	1409	-3153	4618
D:	71.66	-1611	11232	11767	16	105	151	1409	-3153	4618
D:	72.55	-1736	11232	11767	16	105	151	1409	-3153	4618
D:	73.48	-1736	11232	11767	16	105	151	1409	-3153	4618
D:	74.44	-1736	11232	11767	134	63	201	1409	-3153	4618
D:	75.32	-1736	11232	11767	134	63	201	1409	-3153	4618
D:	76.22	-1721	11089	11617	134	63	201	1409	-3153	4618
D:	77.12	-1721	11089	11617	134	63	201	1409	-3153	4618
D:	78.00	-1721	11089	11617	134	127	285	1409	-3153	4618
D:	79.03	-1721	11089	11617	92	127	285	1409	-3153	4618
D:	79.93	-1608	11097	11549	92	127	285	1409	-3153	4618
D:	80.95	-1608	11097	11549	92	127	285	1409	-3153	4618
D:	81.99	-1608	11097	11549	92	178	357	1409	-3153	4618
D:	82.88	-1608	11097	11549	60	178	357	1409	-3153	4618
D:	83.76	-1606	11152	11558	60	178	357	1409	-3153	4618
D:	84.75	-1606	11152	11558	60	178	357	1409	-3153	4618
D:	85.65	-1606	11152	11558	60	178	357	1409	-3153	4618
D:	86.57	-1606	11152	11558	-47	126	272	1409	-3153	4618
D:	87.49	-1606	11152	11558	-47	126	272	1409	-3153	4618
D:	88.37	-1616	11165	11639	-47	126	272	1409	-3153	4618
D:	89.37	-1616	11165	11639	-47	126	272	1409	-3153	4618
D:	90.51	-1616	11165	11639	-17	8	230	1409	-3153	4618
D:	91.47	-1616	11165	11639	-17	8	230	1422	-3173	4379
D:	92.36	-1835	11218	11813	-17	8	230	1422	-3173	4379
D:	93.23	-1835	11218	11813	-17	8	230	1422	-3173	4379
D:	94.11	-1835	11218	11813	239	204	371	1422	-3173	4379
D:	94.99	-1835	11218	11813	33	204	371	1422	-3173	4379
D:	95.93	-1611	11256	11964	33	204	371	1422	-3173	4379
D:	96.91	-1611	11256	11964	33	204	371	1422	-3173	4379
D:	97.79	-1611	11256	11964	33	199	252	1422	-3173	4379
D:	98.67	-1611	11256	11964	-59	199	252	1422	-3173	4379
D:	99.55	-1611	11256	11964	-59	199	252	1422	-3173	4379
D:	100.45	-1763	11201	11708	-59	199	252	1422	-3173	4379
D:	101.33	-1763	11201	11708	-59	199	252	1422	-3173	4379
D:	102.22	-1763	11201	11708	-144	176	275	1422	-3173	4379
D:	103.14	-1763	11201	11708	-144	176	275	1422	-3173	4379
D:	104.18	-1753	11192	11814	-144	176	275	1422	-3173	4379
D:	105.12	-1753	11192	11814	-144	176	275	1422	-3173	4379
D:	105.99	-1753	11192	11814	-144	150	477	1422	-3173	4379
D:	106.89	-1753	11192	11814	-107	150	477	1422	-3173	4379
D:	107.76	-1643	11116	11972	-107	150	477	1422	-3173	4379
D:	108.65	-1643	11116	11972	-107	150	477	1422	-3173	4379
D:	109.54	-1643	11116	11972	-107	150	477	1422	-3173	4379
D:	110.41	-1643	11116	11972	-103	1	234	1422	-3173	4379
D:	111.28	-1643	11116	11972	-103	1	234	1406	-3173	4521
D:	112.21	-1768	11176	11550	-103	1	234	1406	-3173	4521
D:	113.11	-1768	11176	11550	-103	1	234	1406	-3173	4521
D:	114.00	-1768	11176	11550	-103	44	234	1406	-3173	4521
D:	114.90	-1768	11176	11550	-232	44	234	1406	-3173	4521
D:	115.80	-1719	11181	11870	-232	44	234	1406	-3173	4521
D:	116.71	-1719	11181	11870	-232	44	234	1406	-3173	4521
D:	117.59	-1719	11181	11870	-232	44	234	1406	-3173	4521
D:	118.53	-1719	11181	11870	-225	-38	283	1406	-3173	4521
D:	119.48	-1719	11181	11870	-225	-38	283	1406	-3173	4521
D:	120.51	-1729	11205	11602	-225	-38	283	1406	-3173	4521
D:	121.50	-1729	11205	11602	-225	-38	283	1406	-3173	4521
D:	122.45	-1729	11205	11602	-173	-90	287	1406	-3173	4521
D:	123.38	-1729	11205	11602	-173	-90	287	1406	-3173	4521
D:	124.40	-1765	11232	11642	-173	-90	287	1406	-3173	4521
D:	125.39	-1765	11232	11642	-173	-90	287	1406	-3173	4521
D:	126.27	-1765	11232	11642	-197	-62	179	1406	-3173	4521
D:	127.22	-1765	11232	11642	-197	-62	179	1406	-3173	4521
D:	128.12	-1676	11211	11758	-197	-62	179	1406	-3173	4521
D:	128.99	-1676	11211	11758	-197	-62	179	1406	-3173	4521
D:	130.01	-1676	11211	11758	-197	-131	214	1406	-3173	4521
D:	131.04	-1676	11211	11758	-285	-131	214	1399	-3204	4428
D:	132.00	-1700	11074	11653	-285	-131	214	1399	-3204	4428
D:	133.01	-1700	11074	11653	-285	-131	214	1399	-3204	4428
D:	133.89	-1700	11074	11653	-285	-130	320	1399	-3204	4428
D:	134.84	-1700	11074	11653	-284	-130	320	1399	-3204	4428
D:	135.90	-1740	11137	11750	-284	-130	320	1399	-3204	4428
D:	136.90	-1740	11137	11750	-284	-130	320	1399	-3204	4428
D:	137.83	-1740	11137	11750	-284	-149	275	1399	-3204	4428
D:	138.81	-1740	11137	11750	-267	-149	275	1399	-3204	4428
D:	139.71	-1671	11179	11371	-267	-149	275	1399	-3204	4428
D:	140.59	-1671	11179	11371	-267	-149	275	1399	-3204	4428
D:	141.48	-1671	11179	11371	-267	-149	275	1399	-3204	4428
D:	142.36	-1671	11179	11371	-210	46	349	1399	-3204	4428
D:	143.23	-1671	11179	11371	-210	46	349	1399	-3204	4428
D:	144.11	-5448	12257	10907	-210	46	349	1399	-3204	4428
D:	144.99	-5448	12257	10907	-210	46	349	1399	-3204	4428
D:	145.89	-5448	12257	10907	-210	713	617	1399	-3204	4428
D:	146.76	-5448	12257	10907	-202	713	617	1399	-3204	4428
D:	147.65	-5448	10091	12832	-202	713	617	1399	-3204	4428
D:	148.53	757	10091	12832	-202	713	617	1399	-3204	4428
D:	149.50	757	10091	12832	-202	713	617	1399	-3204	4428
D:	150.45	757	10091	12832	-228	200	247	1399	-3204	4428
D:	151.33	757	10091	12832	-228	200	247	1394	-3151	4550
D:	152.20	-2223	11622	11103	-228	200	247	1394	-3151	4550
D:	153.11	-2223	11622	11103	-228	200	247	1394	-3151	4550
D:	154.13	-2223	11622	11103	-228	66	20	1394	-3151	4550
D:	155.14	-2223	11622	11103	-105	66	20	1394	-3151	4550
D:	156.02	-1510	11034	11861	-105	66	20	1394	-3151	4550
D:	156.89	-1510	11034	11861	-105	66	20	1394	-3151	4550
D:	158.00	-1510	11034	11861	-105	-9	-69	1394	-3151	4550
D:	158.90	-1510	11034	11861	-65	-9	-69	1394	-3151	4550
D:	159.80	-467	10632	12341	-65	-9	-69	1394	-3151	4550
D:	160.78	-467	10632	12341	-65	-9	-69	1394	-3151	4550
D:	161.65	-467	10632	12341	-65	-9	-69	1394	-3151	4550
D:	162.54	-467	10632	12341	-125	-90	45	1394	-3151	4550
D:	163.43	-467	10632	12341	-125	-90	45	1394	-3151	4550
D:	164.31	-2015	11370	11368	-125	-90	45	1394	-3151	4550
D:	165.25	-2015	11370	11368	-125	-90	45	1394	-3151	4550
D:	166.18	-2015	11370	11368	-194	-280	-147	1394	-3151	4550
D:	167.12	-2015	11370	11368	-194	-280	-147	1394	-3151	4550
D:	168.28	-1273	10973	11992	-194	-280	-147	1394	-3151	4550
D:	169.42	-1273	10973	11992	-194	-280	-147	1394	-3151	4550
D:	170.38	-1273	10973	11992	-106	-105	-3	1394	-3151	4550
D:	171.25	-1273	10973	11992	-106	-105	-3	1403	-3193	4559
D:	172.12	-896	10709	12113	-106	-105	-3	1403	-3193	4559
D:	173.02	-896	10709	12113	-106	-105	-3	1403	-3193	4559
D:	173.96	-896	10709	12113	-106	53	174	1403	-3193	4559
D:	174.96	-896	10709	12113	-111	53	174	1403	-3193	4559
D:	175.86	-1472	10962	11853	-111	53	174	1403	-3193	4559
D:	176.76	-1472	10962	11853	-111	53	174	1403	-3193	4559
D:	177.65	-1472	10962	11853	-111	53	174	1403	-3193	4559
D:	178.54	-1472	10962	11853	-185	23	110	1403	-3193	4559
D:	179.41	-1472	10962	11853	-185	23	110	1403	-3193	4559
D:	180.31	-1640	11057	11974	-185	23	110	1403	-3193	4559
D:	181.20	-1640	11057	11974	-185	23	110	1403	-3193	4559
D:	182.10	-1640	11057	11974	-185	-34	96	1403	-3193	4559
D:	182.99	-1640	11057	11974	-179	-34	96	1403	-3193	4559
D:	183.86	-1485	11091	11699	-179	-34	96	1403	-3193	4559
D:	184.78	-1485	11091	11699	-179	-34	96	1403	-3193	4559
D:	185.80	-1485	11091	11699	-179	195	-29	1403	-3193	4559
D:	186.71	-1485	11091	11699	-26	195	-29	1403	-3193	4559
D:	187.59	-1485	11091	11699	-26	195	-29	1403	-3193	4559
D:	188.49	-1771	11120	11714	-26	195	-29	1403	-3193	4559
D:	189.36	-1771	11120	11714	-26	195	-29	1403	-3193	4559
D:	190.23	-1771	11120	11714	-114	104	94	1403	-3193	4559
D:	191.11	-1771	11120	11714	-114	104	94	1409	-3153	4695
D:	192.06	-1608	11083	11860	-114	104	94	1409	-3153	4695
D:	193.05	-1608	11083	11860	-114	104	94	1409	-3153	4695
D:	193.95	-1608	11083	11860	-114	155	43	1409	-3153	4695
D:	194.84	-1608	11083	11860	28	155	43	1409	-3153	4695
D:	195.77	-1521	11127	11576	28	155	43	1409	-3153	4695
D:	196.65	-1521	11127	11576	28	155	43	1409	-3153	4695
D:	197.57	-1521	11127	11576	28	155	43	1409	-3153	4695
D:	198.52	-1521	11127	11576	45	86	69	1409	-3153	4695
D:	199.44	-1521	11127	11576	45	86	69	1409	-3153	4695
D:	200.32	-1668	11081	11889	45	86	69	1409	-3153	4695
D:	201.22	-1668	11081	11889	45	86	69	1409	-3153	4695
D:	202.19	-1668	11081	11889	53	175	122	1409	-3153	4695
D:	203.12	-1668	11081	11889	53	175	122	1409	-3153	4695
D:	204.02	-1579	10980	11888	53	175	122	1409	-3153	4695
D:	204.90	-1579	10980	11888	53	175	122	1409	-3153	4695
D:	205.84	-1579	10980	11888	53	102	58	1409	-3153	4695
D:	206.78	-1579	10980	11888	33	102	58	1409	-3153	4695
D:	207.67	-1579	11073	11687	33	102	58	1409	-3153	4695
D:	208.57	-1592	11073	11687	33	102	58	1409	-3153	4695
D:	209.56	-1592	11073	11687	33	102	58	1409	-3153	4695
D:	210.44	-1592	11073	11687	-27	102	6	1409	-3153	4695
D:	211.36	-1592	11073	11687	-27	102	6	1397	-3194	4552
D:	212.25	-1797	11153	12063	-27	102	6	1397	-3194	4552
D:	213.12	-1797	11153	12063	-27	102	6	1397	-3194	4552
D:	214.02	-1797	11153	12063	-27	185	-70	1397	-3194	4552
D:	214.91	-1797	11153	12063	-19	185	-70	1397	-3194	4552
D:	215.82	-1593	11117	11495	-19	185	-70	1397	-3194	4552
D:	216.71	-1593	11117	11495	-19	185	-70	1397	-3194	4552
D:	217.59	-1593	11117	11495	-19	185	-70	1397	-3194	4552
D:	218.51	-1593	11117	11495	-26	203	52	1397	-3194	4552
D:	219.41	-1593	11117	11495	-26	203	52	1397	-3194	4552
D:	220.29	-1589	11162	11688	-26	203	52	1397	-3194	4552
D:	221.21	-1589	11162	11688	-26	203	52	1397	-3194	4552
D:	222.11	-1589	11162	11688	230	101	81	1397	-3194	4552
D:	222.99	-1589	11162	11688	43	101	81	1397	-3194	4552
D:	223.94	-1545	11112	11788	43	101	81	1397	-3194	4552
D:	224.93	-1545	11112	11788	43	101	81	1397	-3194	4552
D:	225.81	-1545	11112	11788	43	34	-78	1397	-3194	4552
D:	226.71	-1545	11112	11788	-58	34	-78	1397	-3194	4552
D:	227.59	-1545	11112	11788	-58	34	-78	1397	-3194	4552
D:	228.48	-1587	11118	11915	-58	34	-78	1397	-3194	4552
D:	229.36	-1587	11118	11915	-58	34	-78	1397	-3194	4552
D:	230.24	-1587	11118	11915	-10	49	18	1397	-3194	4552
D:	231.12	-1587	11118	11915	-10	49	18	1397	-3150	4308
D:	231.99	-1713	11178	11954	-10	49	18	1397	-3150	4308
D:	232.89	-1713	11178	11954	-10	49	18	1397	-3150	4308
D:	233.76	-1713	11178	11954	-10	120	2	1397	-3150	4308
D:	234.65	-1713	11178	11954	-53	120	2	1397	-3150	4308
D:	235.54	-1713	11178	11954	-53	120	2	1393	-3150	4308
D:	236.42	-1640	11244	11892	-53	120	2	1393	-3150	4308
D:	237.42	-1640	11244	11892	-53	120	2	1393	-3150	4308
D:	238.36	-1640	11244	11892	-41	143	3	1393	-3150	4308
D:	239.23	-1640	11244	11892	-41	143	3	1393	-3150	4308
D:	240.11	-1743	11078	12003	-41	143	3	1393	-3150	4308
D:	241.15	-1743	11078	12003	-41	143	3	1393	-3150	4308
D:	242.17	-1743	11078	12003	-22	113	6	1393	-3150	4308
D:	243.13	-1743	11078	12003	-22	113	6	1393	-3150	4308
D:	244.03	-1759	11131	11829	-22	113	6	1393	-3150	4308
D:	244.93	-1759	11131	11829	-22	113	6	1393	-3150	4308
D:	245.83	-1759	11131	11829	-22	38	13	1393	-3150	4308
D:	246.76	-1759	11131	11829	-128	38	13	1393	-3150	4308
D:	247.66	-1759	11186	11753	-128	38	13	1393	-3150	4308
D:	248.56	-1662	11186	11753	-128	38	13	1393	-3150	4308
D:	249.48	-1662	11186	11753	-128	38	13	1393	-3150	4308
D:	250.53	-1662	11186	11753	-148	83	3	1393	-3150	4308
D:	251.60	-1483	11124	11770	-148	83	3	1393	-3150	4308
D:	252.67	-1483	11124	11770	-148	83	3	1393	-3150	4308
D:	253.57	-1483	11124	11770	-148	83	3	1393	-3150	4308
D:	254.49	-1483	11124	11770	-58	75	-121	1393	-3150	4308
D:	255.37	-1483	11124	11770	-58	75	-121	1398	-3182	4486
D:	256.26	-1678	11183	11969	-58	75	-121	1398	-3182	4486
D:	257.20	-1678	11183	11969	-58	75	-121	1398	-3182	4486
D:	258.11	-1678	11183	11969	-58	240	-37	1398	-3182	4486
D:	259.07	-1678	11183	11969	-188	240	-37	1398	-3182	4486
D:	260.03	-1655	11116	11745	-188	240	-37	1398	-3182	4486
D:	260.92	-1655	11116	11745	-188	240	-37	1398	-3182	4486
D:	261.81	-1655	11116	11745	-188	53	-15	1398	-3182	4486
D:	262.76	-1655	11116	11745	-151	53	-15	1398	-3182	4486
D:	263.65	-1655	11116	11780	-151	53	-15	1398	-3182	4486
D:	264.53	-1662	11116	11780	-151	53	-15	1398	-3182	4486
D:	265.41	-1662	11116	11780	-151	53	-15	1398	-3182	4486
D:	266.29	-1662	11116	11780	-102	49	-34	1398	-3182	4486
D:	267.21	-1662	11116	11780	-102	49	-34	1398	-3182	4486
D:	268.12	-1691	11134	11682	-102	49	-34	1398	-3182	4486
D:	269.08	-1691	11134	11682	-102	49	-34	1398	-3182	4486
D:	270.05	-1691	11134	11682	-102	66	-13	1398	-3182	4486
D:	270.99	-1691	11134	11682	-57	66	-13	1398	-3182	4486
D:	271.89	-1443	11103	11797	-57	66	-13	1398	-3182	4486
D:	272.79	-1443	11103	11797	-57	66	-13	1398	-3182	4486
D:	273.67	-1443	11103	11797	-57	66	-13	1398	-3182	4486
D:	274.62	-1443	11103	11797	-153	12	-32	1398	-3182	4486
D:	275.52	-1443	11103	11797	-153	12	-32	1404	-3160	4358
D:	276.38	-1758	11186	11953	-153	12	-32	1404	-3160	4358
D:	277.26	-1758	11186	11953	-153	12	-32	1404	-3160	4358
D:	278.21	-1758	11186	11953	-20	90	-8	1404	-3160	4358
D:	279.11	-1758	11186	11953	-20	90	-8	1404	-3160	4358
D:	279.99	-1656	11048	11730	-20	90	-8	1404	-3160	4358
D:	280.86	-1656	11048	11730	-20	90	-8	1404	-3160	4358
D:	281.76	-1656	11048	11730	-20	180	-75	1404	-3160	4358
D:	282.65	-1656	11048	11730	-11	180	-75	1404	-3160	4358
D:	283.55	-1656	11048	11730	-11	180	-75	1404	-3160	4358
D:	284.47	-1624	11095	11732	-11	180	-75	1404	-3160	4358
D:	285.41	-1624	11095	11732	-11	180	-75	1404	-3160	4358
D:	286.30	-1624	11095	11732	7	94	-90	1404	-3160	4358
D:	287.22	-1624	11095	11732	7	94	-90	1404	-3160	4358
D:	288.13	-1660	11177	11901	7	94	-90	1404	-3160	4358
D:	289.04	-1660	11177	11901	7	94	-90	1404	-3160	4358
D:	289.92	-1660	11177	11901	7	74	-24	1404	-3160	4358
D:	290.84	-1660	11177	11901	66	74	-24	1404	-3160	4358
D:	291.78	-1589	11144	11655	66	74	-24	1404	-3160	4358
D:	292.67	-1589	11144	11655	66	74	-24	1404	-3160	4358
D:	293.57	-1589	11144	11655	66	74	-24	1404	-3160	4358
D:	294.47	-1589	11144	11655	-63	99	-96	1404	-3160	4358
D:	295.38	-1589	11144	11655	-63	99	-96	1404	-3192	4527
D:	296.26	-1687	11154	11818	-63	99	-96	1404	-3192	4527
D:	297.21	-1687	11154	11818	-63	99	-96	1404	-3192	4527
D:	298.11	-1687	11154	11818	-63	135	-51	1404	-3192	4527
D:	298.99	-1687	11154	11818	-6	135	-51	1404	-3192	4527
D:	299.89	-1683	11192	11776	-6	135	-51	1404	-3192	4527
D:	300.76	-1683	11192	11776	-6	135	-51	1404	-3192	4527
D:	301.66	-1683	11192	11776	-6	135	-51	1404	-3192	4527
D:	302.56	-1683	11192	11776	-39	200	-102	1404	-3192	4527
D:	303.45	-1683	11192	11776	-39	200	-102	1404	-3192	4527
D:	304.33	-1699	11150	11541	-39	200	-102	1404	-3192	4527
D:	305.21	-1699	11150	11541	-39	200	-102	1404	-3192	4527
D:	306.11	-1699	11150	11541	-39	139	-105	1404	-3192	4527
D:	306.99	-1699	11150	11541	-25	139	-105	1404	-3192	4527
D:	307.89	-1781	11140	11569	-25	139	-105	1404	-3192	4527
D:	308.79	-1781	11140	11569	-25	139	-105	1404	-3192	4527
D:	309.67	-1781	11140	11569	-25	139	-105	1404	-3192	4527
D:	310.67	-1781	11140	11569	-4	89	248	1404	-3192	4527
D:	311.66	-1781	11132	11628	-4	89	248	1404	-3192	4527
D:	312.54	-1589	11132	11628	-4	89	248	1404	-3192	4527
D:	313.41	-1589	11132	11628	-4	89	248	1404	-3192	4527
D:	314.28	-1589	11132	11628	-72	146	-26	1404	-3192	4527
D:	315.21	-1589	11132	11628	-72	146	-26	1404	-3162	4503
D:	316.11	-1532	11088	11590	-72	146	-26	1404	-3162	4503
D:	316.99	-1532	11088	11590	-72	146	-26	1404	-3162	4503
D:	317.86	-1532	11088	11590	-72	53	-35	1404	-3162	4503
D:	318.76	-1532	11088	11590	18	53	-35	1404	-3162	4503
D:	319.74	-1630	11074	11681	18	53	-35	1404	-3162	4503
D:	320.72	-1630	11074	11681	18	53	-35	1404	-3162	4503
D:	321.65	-1630	11074	11681	18	53	-35	1404	-3162	4503
D:	322.51	-1630	11074	11681	33	103	-46	1404	-3162	4503
D:	323.41	-1630	11074	11681	33	103	-46	1404	-3162	4503
D:	324.28	-1728	11091	11718	33	103	-46	1404	-3162	4503
D:	325.22	-1728	11091	11718	33	103	-46	1404	-3162	4503
D:	326.12	-1728	11091	11718	-223	117	-71	1404	-3162	4503
D:	327.03	-1728	11091	11718	-84	117	-71	1404	-3162	4503
D:	327.93	-1730	11072	11712	-84	117	-71	1404	-3162	4503
D:	328.82	-1730	11072	11712	-84	117	-71	1404	-3162	4503
D:	329.77	-1730	11072	11712	-84	194	-27	1404	-3162	4503
D:	330.67	-1730	11072	11712	230	194	-27	1404	-3162	4503
D:	331.58	-1730	11072	11712	230	194	-27	1404	-3162	4503
D:	332.47	-1608	11216	11605	230	194	-27	1404	-3162	4503
D:	333.34	-1608	11216	11605	230	194	-27	1404	-3162	4503
D:	334.23	-1608	11216	11605	-81	95	-60	1404	-3162	4503
D:	335.31	-1608	11216	11605	-81	95	-60	1393	-3170	4463
D:	336.25	-1777	11116	11775	-81	95	-60	1393	-3170	4463
D:	337.31	-1777	11116	11775	-81	95	-60	1393	-3170	4463
D:	338.25	-1777	11116	11775	-4	50	-62	1393	-3170	4463
D:	339.17	-1777	11116	11775	-4	50	-62	1393	-3170	4463
D:	340.11	-1715	11150	11875	-4	50	-62	1393	-3170	4463
D:	340.99	-1715	11150	11875	-4	50	-62	1393	-3170	4463
D:	341.97	-1715	11150	11875	-4	58	-57	1393	-3170	4463
D:	342.86	-1715	11150	11875	-9	58	-57	1393	-3170	4463
D:	343.76	-1507	11116	11679	-9	58	-57	1393	-3170	4463
D:	344.65	-1507	11116	11679	-9	58	-57	1393	-3170	4463
D:	345.67	-1507	11116	11679	-9	58	-57	1393	-3170	4463
D:	346.66	-1507	11116	11679	8	42	-23	1393	-3170	4463
D:	347.54	-1507	11116	11679	8	42	-23	1393	-3170	4463
D:	348.41	-1605	11074	11718	8	42	-23	1393	-3170	4463
D:	349.29	-1605	11074	11718	8	42	-23	1393	-3170	4463
D:	350.21	-1605	11074	11718	23	55	-34	1393	-3170	4463
D:	351.09	-1605	11074	11718	23	55	-34	1393	-3170	4463
D:	352.14	-1728	11063	11835	23	55	-34	1393	-3170	4463
D:	353.06	-1728	11063	11835	23	55	-34	1393	-3170	4463
D:	353.93	-1728	11063	11835	23	28	-93	1393	-3170	4463
D:	354.81	-1728	11063	11835	24	28	-93	1408	-3172	4580
D:	355.76	-1606	11048	11710	24	28	-93	1408	-3172	4580
D:	356.65	-1606	11048	11710	24	28	-93	1408	-3172	4580
D:	357.54	-1606	11048	11710	24	28	-93	1408	-3172	4580
D:	358.41	-1606	11048	11710	89	11	-53	1408	-3172	4580
D:	359.29	-1606	11048	11710	89	11	-53	1408	-3172	4580
D:	360.20	-1693	11150	11851	89	11	-53	1408	-3172	4580
D:	361.11	-1693	11150	11851	89	11	-53	1408	-3172	4580
D:	361.99	-1693	11150	11851	89	82	-82	1408	-3172	4580
D:	362.86	-1693	11150	11851	-18	82	-82	1408	-3172	4580
D:	363.77	-1753	11184	11728	-18	82	-82	1408	-3172	4580
D:	364.65	-1753	11184	11728	-18	82	-82	1408	-3172	4580
D:	365.56	-1753	11184	11728	-18	82	-82	1408	-3172	4580
D:	366.51	-1753	11184	11728	67	132	-85	1408	-3172	4580
D:	367.52	-1753	11184	11728	67	132	-85	1408	-3172	4580
D:	368.43	-1708	11078	11547	67	132	-85	1408	-3172	4580
D:	369.32	-1708	11078	11547	67	132	-85	1408	-3172	4580
D:	370.22	-1708	11078	11547	11	113	-96	1408	-3172	4580
D:	371.12	-1708	11078	11547	11	113	-96	1408	-3172	4580
D:	372.01	-1719	11050	11766	11	113	-96	1408	-3172	4580
D:	372.90	-1719	11050	11766	11	113	-96	1408	-3172	4580
D:	373.80	-1719	11050	11766	11	150	-110	1408	-3172	4580
D:	374.71	-1719	11050	11766	-58	150	-110	1390	-3176	4552
D:	375.65	-1719	11104	11720	-58	150	-110	1390	-3176	4552
D:	376.60	-1573	11104	11720	-58	150	-110	1390	-3176	4552
D:	377.50	-1573	11104	11720	-58	150	-110	1390	-3176	4552
D:	378.38	-1573	11104	11720	51	19	-23	1390	-3176	4552
D:	379.26	-1573	11104	11720	51	19	-23	1390	-3176	4552
D:	380.21	-1546	11049	11715	51	19	-23	1390	-3176	4552
D:	381.11	-1546	11049	11715	51	19	-23	1390	-3176	4552
D:	381.99	-1546	11049	11715	51	-16	-177	1390	-3176	4552
D:	382.86	-1546	11049	11715	79	-16	-177	1390	-3176	4552
D:	383.77	-1606	11150	11846	79	-16	-177	1390	-3176	4552
D:	384.65	-1606	11150	11846	79	-16	-177	1390	-3176	4552
D:	385.54	-1606	11150	11846	79	-16	-177	1390	-3176	4552
D:	386.41	-1606	11150	11846	56	7	-166	1390	-3176	4552
D:	387.29	-1606	11150	11846	56	7	-166	1390	-3176	4552
D:	388.19	-1749	10992	11819	56	7	-166	1390	-3176	4552
D:	389.11	-1749	10992	11819	56	7	-166	1390	-3176	4552
D:	389.99	-1749	10992	11819	56	44	-273	1390	-3176	4552
D:	390.93	-1749	10992	11819	99	44	-273	1390	-3176	4552
D:	391.81	-1719	11150	11785	99	44	-273	1390	-3176	4552
D:	392.76	-1719	11150	11785	99	44	-273	1390	-3176	4552
D:	393.65	-1719	11150	11785	99	44	-273	1390	-3176	4552
D:	394.53	-1719	11150	11785	81	40	-283	1390	-3176	4552
D:	395.41	-1719	11150	11785	81	40	-283	1390	-3176	4313
D:	396.28	-1594	11162	11810	81	40	-283	1390	-3176	4313
D:	397.21	-1594	11162	11810	81	40	-283	1390	-3176	4313
D:	398.11	-1594	11162	11810	81	85	-331	1390	-3176	4313
D:	398.99	-1594	11162	11810	107	85	-331	1398	-3137	4313
D:	399.96	-1698	11151	11410	107	85	-331	1398	-3137	4313
D:	400.94	-1698	11151	11410	107	85	-331	1398	-3137	4313
D:	401.81	-1698	11151	11410	107	69	-213	1398	-3137	4313
D:	402.72	-1698	11151	11410	26	69	-213	1398	-3137	4313
D:	403.65	-1698	11102	11968	26	69	-213	1398	-3137	4313
D:	404.55	-1630	11102	11968	26	69	-213	1398	-3137	4313
D:	405.44	-1630	11102	11968	26	69	-213	1398	-3137	4313
D:	406.48	-1630	11102	11968	67	98	-212	1398	-3137	4313
D:	407.40	-1630	11102	11968	67	98	-212	1398	-3137	4313
D:	408.29	-1446	11116	11457	67	98	-212	1398	-3137	4313
D:	409.21	-1446	11116	11457	67	98	-212	1398	-3137	4313
D:	410.17	-1446	11116	11457	108	75	-243	1398	-3137	4313
D:	411.13	-1446	11116	11457	108	75	-243	1398	-3137	4313
D:	412.01	-1554	11106	11690	108	75	-243	1398	-3137	4313
D:	412.90	-1554	11106	11690	108	75	-243	1398	-3137	4313
D:	413.80	-1554	11106	11690	108	52	-186	1398	-3137	4313
D:	414.71	-1554	11106	11690	194	52	-186	1398	-3137	4313
D:	415.59	-1554	11106	11690	194	52	-186	1398	-3137	4313
D:	416.50	-1680	11144	11949	194	52	-186	1398	-3137	4313
D:	417.40	-1680	11144	11949	194	52	-186	1398	-3137	4313
D:	418.35	-1680	11144	11949	110	122	-180	1398	-3137	4313
D:	419.25	-1680	11144	11949	110	122	-180	1402	-3171	4503
D:	420.25	-1706	11113	11798	110	122	-180	1402	-3171	4503
D:	421.21	-1706	11113	11798	110	122	-180	1402	-3171	4503
D:	422.11	-1706	11113	11798	110	37	-224	1402	-3171	4503
D:	422.99	-1706	11113	11798	70	37	-224	1402	-3171	4503
D:	423.86	-1709	11180	11809	70	37	-224	1402	-3171	4503
D:	424.76	-1709	11180	11809	70	37	-224	1402	-3171	4503
D:	425.65	-1709	11180	11809	70	37	-224	1402	-3171	4503
D:	426.53	-1709	11180	11809	121	161	-287	1402	-3171	4503
D:	427.41	-1709	11180	11809	121	161	-287	1402	-3171	4503
D:	428.28	-1551	11113	11727	121	161	-287	1402	-3171	4503
D:	429.20	-1551	11113	11727	121	161	-287	1402	-3171	4503
D:	430.11	-1551	11113	11727	121	71	-213	1402	-3171	4503
D:	430.99	-1551	11113	11727	26	71	-213	1402	-3171	4503
D:	431.86	-1736	11158	11801	26	71	-213	1402	-3171	4503
D:	432.76	-1736	11158	11801	26	71	-213	1402	-3171	4503
D:	433.65	-1736	11158	11801	26	71	-213	1402	-3171	4503
D:	434.58	-1736	11158	11801	130	29	-219	1402	-3171	4503
D:	435.67	-1571	11190	11783	130	29	-219	1402	-3171	4503
D:	436.56	-1571	11190	11783	130	29	-219	1402	-3171	4503
D:	437.47	-1571	11190	11783	130	29	-219	1402	-3171	4503
D:	438.34	-1571	11190	11783	116	78	-127	1402	-3171	4503
D:	439.21	-1571	11190	11783	116	78	-127	1402	-3152	4596
D:	440.10	-1557	11106	11817	116	78	-127	1402	-3152	4596
D:	440.99	-1557	11106	11817	116	78	-127	1402	-3152	4596
D:	441.86	-1557	11106	11817	116	103	-175	1402	-3152	4596
D:	442.76	-1557	11106	11817	3	103	-175	1402	-3152	4596
D:	443.65	-1557	11174	11613	3	103	-175	1402	-3152	4596
D:	444.54	-1639	11174	11613	3	103	-175	1402	-3152	4596
D:	445.41	-1639	11174	11613	3	103	-175	1402	-3152	4596
D:	446.28	-1639	11174	11613	69	89	-110	1402	-3152	4596
D:	447.21	-1639	11174	11613	69	89	-110	1402	-3152	4596
D:	448.11	-1803	11189	11718	69	89	-110	1402	-3152	4596
D:	449.00	-1803	11189	11718	69	89	-110	1402	-3152	4596
D:	449.97	-1803	11189	11718	69	68	-167	1402	-3152	4596
D:	450.92	-1803	11189	11718	-23	68	-167	1402	-3152	4596
D:	451.84	-1611	11059	11503	-23	68	-167	1402	-3152	4596
D:	452.76	-1611	11059	11503	-23	68	-167	1402	-3152	4596
D:	453.65	-1611	11059	11503	-23	68	-167	1402	-3152	4596
D:	454.53	-1611	11059	11503	-12	69	-116	1402	-3152	4596
D:	455.41	-1611	11059	11503	-12	69	-116	1402	-3152	4596
D:	456.30	-1707	11118	11821	-12	69	-116	1402	-3152	4596
D:	457.20	-1707	11118	11821	-12	69	-116	1402	-3152	4596
D:	458.11	-1707	11118	11821	244	90	-133	1402	-3152	4596
D:	458.99	-1707	11118	11821	15	90	-133	1396	-3161	4527
D:	459.95	-1594	11189	11877	15	90	-133	1396	-3161	4527
D:	460.85	-1594	11189	11877	15	90	-133	1396	-3161	4527
D:	461.77	-1594	11189	11877	15	48	-88	1396	-3161	4527
D:	462.65	-1594	11189	11877	-25	48	-88	1396	-3161	4527
D:	463.54	-1594	11189	11877	-25	48	-88	1396	-3161	4527
D:	464.41	-1702	11225	11673	-25	48	-88	1396	-3161	4527
D:	465.28	-1702	11225	11673	-25	48	-88	1396	-3161	4527
D:	466.21	-1702	11225	11673	25	35	-18	1396	-3161	4527
D:	467.11	-1702	11225	11673	25	35	-18	1396	-3161	4527
D:	467.99	-1835	11179	11864	25	35	-18	1396	-3161	4527
D:	468.89	-1835	11179	11864	25	35	-18	1396	-3161	4527
D:	469.79	-1835	11179	11864	25	85	-135	1396	-3161	4527
D:	470.67	-1835	11179	11864	-26	85	-135	1396	-3161	4527
D:	471.54	-1835	11179	11864	-26	85	-135	1396	-3161	4527
D:	472.41	-1653	11080	11892	-26	85	-135	1396	-3161	4527
D:	473.28	-1653	11080	11892	-26	85	-135	1396	-3161	4527
D:	474.21	-1653	11080	11892	-16	129	-162	1396	-3161	4527
D:	475.11	-1653	11080	11892	-16	129	-162	1396	-3161	4527
D:	476.03	-1588	11102	11699	-16	129	-162	1396	-3161	4527
D:	476.91	-1588	11102	11699	-16	129	-162	1396	-3161	4527
D:	477.78	-1588	11102	11699	-16	2	-63	1396	-3161	4527
D:	478.66	-1588	11102	11699	-4	2	-63	1396	-3161	4527
D:	479.54	-1588	11102	11699	-4	2	-63	1408	-3151	4344
D:	480.41	-1800	11116	11857	-4	2	-63	1408	-3151	4344
D:	481.28	-1800	11116	11857	-4	2	-63	1408	-3151	4344
D:	482.21	-1800	11116	11857	17	152	-91	1408	-3151	4344
D:	483.11	-1800	11116	11857	17	152	-91	1408	-3151	4344
D:	483.99	-1633	11153	11637	17	152	-91	1408	-3151	4344
D:	484.89	-1633	11153	11637	17	152	-91	1408	-3151	4344
D:	485.76	-1633	11153	11637	17	88	-83	1408	-3151	4344
D:	486.69	-1633	11153	11637	-45	88	-83	1408	-3151	4344
D:	487.74	-1630	11106	11602	-45	88	-83	1408	-3151	4344
D:	488.71	-1630	11106	11602	-45	88	-83	1408	-3151	4344
D:	489.65	-1630	11106	11602	-45	88	-83	1408	-3151	4344
D:	490.53	-1630	11106	11602	-1	94	-106	1408	-3151	4344
D:	491.41	-1630	11106	11602	-1	94	-106	1408	-3151	4344
D:	492.51	-1751	11075	11782	-1	94	-106	1408	-3151	4344
D:	493.50	-1751	11075	11782	-1	94	-106	1408	-3151	4344
D:	494.67	-1751	11075	11782	45	57	-90	1408	-3151	4344
D:	495.67	-1650	11114	11542	45	57	-90	1408	-3151	4344
D:	496.57	-1650	11114	11542	45	57	-90	1408	-3151	4344
D:	497.50	-1650	11114	11542	45	57	-90	1408	-3151	4344
D:	498.41	-1650	11114	11542	-52	69	-98	1408	-3151	4344
D:	499.30	-1650	11114	11542	-52	69	-98	1408	-3166	4484
D:	500.22	-1807	11142	11888	-52	69	-98	1408	-3166	4484
D:	501.17	-1807	11142	11888	-52	69	-98	1408	-3166	4484
D:	502.15	-1807	11142	11888	-52	9	-73	1408	-3166	4484
D:	503.06	-1807	11142	11888	-37	9	-73	1408	-3166	4484
D:	504.03	-1700	11129	11749	-37	9	-73	1408	-3166	4484
D:	504.99	-1700	11129	11749	-37	9	-73	1408	-3166	4484
D:	505.89	-1700	11129	11749	-37	42	-108	1408	-3166	4484
D:	506.77	-1700	11129	11749	91	42	-108	1408	-3166	4484
D:	507.65	-1700	11046	11745	91	42	-108	1408	-3166	4484
D:	508.53	-1749	11046	11745	91	42	-108	1408	-3166	4484
D:	509.40	-1749	11046	11745	91	42	-108	1408	-3166	4484
D:	510.28	-1749	11046	11745	67	0	-33	1408	-3166	4484
D:	511.21	-1749	11046	11745	67	0	-33	1408	-3166	4484
D:	512.11	-1796	11146	11978	67	0	-33	1408	-3166	4484
D:	513.11	-1796	11146	11978	67	0	-33	1408	-3166	4484
D:	514.08	-1796	11146	11978	67	-18	-96	1408	-3166	4484
D:	514.94	-1796	11146	11978	93	-18	-96	1408	-3166	4484
D:	515.81	-1719	11234	11645	93	-18	-96	1408	-3166	4484
D:	516.76	-1719	11234	11645	93	-18	-96	1408	-3166	4484
D:	517.65	-1719	11234	11645	93	-18	-96	1408	-3166	4484
D:	518.68	-1719	11234	11645	-59	52	-48	1406	-3166	4601
D:	519.66	-1719	11172	11816	-59	52	-48	1406	-3166	4601
D:	520.53	-1637	11172	11816	-59	52	-48	1406	-3166	4601
D:	521.41	-1637	11172	11816	-59	52	-48	1406	-3166	4601
D:	522.28	-1637	11172	11816	-25	135	-71	1406	-3166	4601
D:	523.21	-1637	11172	11816	-25	135	-71	1406	-3166	4601
D:	524.10	-1794	11147	11793	-25	135	-71	1406	-3166	4601
D:	524.99	-1794	11147	11793	-25	135	-71	1406	-3166	4601
D:	525.86	-1794	11147	11793	-25	-1	-3	1406	-3166	4601
D:	526.76	-1794	11147	11793	13	-1	-3	1406	-3166	4601
D:	527.65	-1794	11070	11779	13	-1	-3	1406	-3166	4601
D:	528.53	-1551	11070	11779	13	-1	-3	1406	-3166	4601
D:	529.41	-1551	11070	11779	13	-1	-3	1406	-3166	4601
D:	530.28	-1551	11070	11779	-43	80	3	1406	-3166	4601
D:	531.20	-1551	11070	11779	-43	80	3	1406	-3166	4601
D:	532.10	-1787	11179	11814	-43	80	3	1406	-3166	4601
D:	533.00	-1787	11179	11814	-43	80	3	1406	-3166	4601
D:	533.90	-1787	11179	11814	-43	-202	36	1406	-3166	4601
D:	534.95	-1787	11179	11814	46	-202	36	1406	-3166	4601
D:	535.91	-1632	11138	11834	46	-202	36	1406	-3166	4601
D:	536.79	-1632	11138	11834	46	-202	36	1406	-3166	4601
D:	537.71	-1632	11138	11834	46	-202	36	1406	-3166	4601
D:	538.65	-1632	11138	11834	65	7	69	1406	-3166	4601
D:	539.54	-1632	11138	11834	65	7	69	1405	-3142	4373
D:	540.43	-1713	11094	11858	65	7	69	1405	-3142	4373
D:	541.32	-1713	11094	11858	65	7	69	1405	-3142	4373
D:	542.20	-1713	11094	11858	-50	57	26	1405	-3142	4373
D:	543.12	-1713	11094	11858	-50	57	26	1405	-3142	4373
D:	544.02	-1818	11244	11918	-50	57	26	1405	-3142	4373
D:	544.89	-1818	11244	11918	-50	57	26	1405	-3142	4373
D:	545.83	-1818	11244	11918	-50	119	22	1405	-3142	4373
D:	546.76	-1818	11244	11918	-32	119	22	1405	-3142	4373
D:	547.65	-1818	11199	11906	-32	119	22	1405	-3142	4373
D:	548.54	-1576	11199	11906	-32	119	22	1405	-3142	4373
D:	549.43	-1576	11199	11906	-32	119	22	1405	-3142	4373
D:	550.31	-1576	11199	11906	-72	181	-54	1405	-3142	4373
D:	551.21	-1576	11199	11906	-72	181	-54	1405	-3142	4373
D:	552.13	-1657	11151	11624	-72	181	-54	1405	-3142	4373
D:	553.07	-1657	11151	11624	-72	181	-54	1405	-3142	4373
D:	554.01	-1657	11151	11624	-72	66	5	1405	-3142	4373
D:	554.88	-1657	11151	11624	65	66	5	1405	-3142	4373
D:	555.76	-1656	11082	11700	65	66	5	1405	-3142	4373
D:	556.65	-1656	11082	11700	65	66	5	1405	-3142	4373
D:	557.52	-1656	11082	11700	65	66	5	1405	-3142	4373
D:	558.41	-1656	11082	11700	-4	-2	38	1405	-3142	4373
D:	559.28	-1656	11082	11700	-4	-2	38	1405	-3142	4373
D:	560.21	-1669	11104	11875	-4	-2	38	1405	-3142	4373
D:	561.11	-1669	11104	11875	-4	-2	38	1405	-3142	4373
D:	561.99	-1669	11104	11875	-4	46	94	1405	-3142	4373
D:	562.89	-1669	11104	11875	0	46	94	1407	-3151	4437
D:	563.76	-1716	11088	11656	0	46	94	1407	-3151	4437
D:	564.66	-1716	11088	11656	0	46	94	1407	-3151	4437
D:	565.51	-1716	11088	11656	0	46	94	1407	-3151	4437
D:	566.39	-1716	11088	11656	51	18	10	1407	-3151	4437
D:	567.26	-1716	11088	11656	51	18	10	1407	-3151	4437
D:	568.21	-1607	11111	11855	51	18	10	1407	-3151	4437
D:	569.12	-1607	11111	11855	51	18	10	1407	-3151	4437
D:	570.03	-1607	11111	11855	51	1	43	1407	-3151	4437
D:	570.91	-1607	11111	11855	29	1	43	1407	-3151	4437
D:	571.80	-1697	11150	11563	29	1	43	1407	-3151	4437
D:	572.81	-1697	11150	11563	29	1	43	1407	-3151	4437
D:	573.76	-1697	11150	11563	29	124	88	1407	-3151	4437
D:	574.65	-1697	11150	11563	26	124	88	1407	-3151	4437
D:	575.55	-1697	11150	11563	26	124	88	1407	-3151	4437
D:	576.46	-1660	11102	11886	26	124	88	1407	-3151	4437
D:	577.35	-1660	11102	11886	26	124	88	1407	-3151	4437
D:	578.24	-1660	11102	11886	45	44	-10	1407	-3151	4437
D:	579.13	-1660	11102	11886	45	44	-10	1407	-3151	4437
D:	580.03	-1682	11102	11779	45	44	-10	1407	-3151	4437
D:	580.94	-1682	11102	11779	45	44	-10	1407	-3151	4437
D:	581.84	-1682	11102	11779	45	20	-10	1407	-3151	4437
D:	582.76	-1682	11102	11779	56	20	-10	1407	-3172	4512
D:	583.66	-1682	11105	11649	56	20	-10	1407	-3172	4512
D:	584.55	-1540	11105	11649	56	20	-10	1407	-3172	4512
D:	585.48	-1540	11105	11649	56	20	-10	1407	-3172	4512
D:	586.38	-1540	11105	11649	-10	35	59	1407	-3172	4512
D:	587.40	-1540	11105	11649	-10	35	59	1407	-3172	4512
D:	588.39	-1648	11112	11750	-10	35	59	1407	-3172	4512
D:	589.28	-1648	11112	11750	-10	35	59	1407	-3172	4512
D:	590.20	-1648	11112	11750	-113	51	38	1407	-3172	4512
D:	591.12	-1648	11112	11750	-113	51	38	1407	-3172	4512
D:	592.02	-1670	11203	11752	-113	51	38	1407	-3172	4512
D:	592.89	-1670	11203	11752	-113	51	38	1407	-3172	4512
D:	593.76	-1670	11203	11752	-113	26	28	1407	-3172	4512
D:	594.65	-1670	11203	11752	-14	26	28	1407	-3172	4512
D:	595.54	-1670	11203	11752	-14	26	28	1407	-3172	4512
D:	596.44	-1648	11088	11587	-14	26	28	1407	-3172	4512
D:	597.32	-1648	11088	11587	-14	26	28	1407	-3172	4512
D:	598.21	-1648	11088	11587	-12	84	1	1407	-3172	4512
D:	599.11	-1648	11088	11587	-12	84	1	1407	-3172	4512
D:	599.99	-1702	11102	11844	-12	84	1	1407	-3172	4512
D:	600.86	-1702	11102	11844	-12	84	1	1407	-3172	4512
D:	601.77	-1702	11102	11844	-12	46	49	1407	-3172	4512
D:	602.68	-1702	11102	11844	14	46	49	1407	-3172	4512
D:	603.55	-1702	11102	11844	14	46	49	1401	-3169	4546
D:	604.44	-1558	11034	11713	14	46	49	1401	-3169	4546
D:	605.30	-1558	11034	11713	14	46	49	1401	-3169	4546
D:	606.20	-1558	11034	11713	225	113	-35	1401	-3169	4546
D:	607.18	-1558	11034	11713	225	113	-35	1401	-3169	4546
D:	608.16	-1802	11129	11643	225	113	-35	1401	-3169	4546
D:	609.06	-1802	11129	11643	225	113	-35	1401	-3169	4546
D:	609.94	-1802	11129	11643	225	128	8	1401	-3169	4546
D:	610.81	-1802	11129	11643	-50	128	8	1401	-3169	4546
D:	611.76	-1646	11121	11884	-50	128	8	1401	-3169	4546
D:	612.65	-1646	11121	11884	-50	128	8	1401	-3169	4546
D:	613.53	-1646	11121	11884	-50	128	8	1401	-3169	4546
D:	614.45	-1646	11121	11884	-40	43	-1	1401	-3169	4546
D:	615.34	-1646	11121	11884	-40	43	-1	1401	-3169	4546
D:	616.21	-1539	11122	11769	-40	43	-1	1401	-3169	4546
D:	617.11	-1539	11122	11769	-40	43	-1	1401	-3169	4546
D:	618.02	-1539	11122	11769	-40	104	-70	1401	-3169	4546
D:	618.91	-1539	11122	11769	-50	104	-70	1401	-3169	4546
D:	619.84	-1673	11120	11699	-50	104	-70	1401	-3169	4546
D:	620.84	-1673	11120	11699	-50	104	-70	1401	-3169	4546
D:	621.78	-1673	11120	11699	-50	96	-79	1401	-3169	4546
D:	622.71	-1673	11120	11699	-2	96	-79	1408	-3157	4408
D:	623.65	-1673	11122	11840	-2	96	-79	1408	-3157	4408
D:	624.55	-1603	11122	11840	-2	96	-79	1408	-3157	4408
D:	625.48	-1603	11122	11840	-2	96	-79	1408	-3157	4408
D:	626.37	-1603	11122	11840	-7	61	-65	1408	-3157	4408
D:	627.27	-1603	11122	11840	-7	61	-65	1408	-3157	4408
D:	628.22	-1593	11182	11483	-7	61	-65	1408	-3157	4408
D:	629.12	-1593	11182	11483	-7	61	-65	1408	-3157	4408
D:	630.08	-1593	11182	11483	-7	35	-32	1408	-3157	4408
D:	631.11	-1593	11182	11483	-18	35	-32	1408	-3157	4408
D:	632.02	-1628	11127	11793	-18	35	-32	1408	-3157	4408
D:	632.90	-1628	11127	11793	-18	35	-32	1408	-3157	4408
D:	633.78	-1628	11127	11793	-18	31	-99	1408	-3157	4408
D:	634.76	-1628	11127	11793	-26	31	-99	1408	-3157	4408
D:	635.67	-1645	11155	11615	-26	31	-99	1408	-3157	4408
D:	636.55	-1645	11155	11615	-26	31	-99	1408	-3157	4408
D:	637.46	-1645	11155	11615	-26	31	-99	1408	-3157	4408
D:	638.34	-1645	11155	11615	-23	65	-98	1408	-3157	4408
D:	639.21	-1645	11155	11615	-23	65	-98	1408	-3157	4408
D:	640.11	-1626	11046	11656	-23	65	-98	1408	-3157	4408
D:	640.99	-1626	11046	11656	-23	65	-98	1408	-3157	4408
D:	641.86	-1626	11046	11656	-23	66	-30	1408	-3157	4408
D:	642.76	-1626	11046	11656	-15	66	-30	1406	-3170	4459
D:	643.65	-1626	11071	11965	-15	66	-30	1406	-3170	4459
D:	644.54	-1667	11071	11965	-15	66	-30	1406	-3170	4459
D:	645.41	-1667	11071	11965	-15	66	-30	1406	-3170	4459
D:	646.28	-1667	11071	11965	-23	193	-85	1406	-3170	4459
D:	647.20	-1667	11071	11965	-23	193	-85	1406	-3170	4459
D:	648.12	-1521	11090	11576	-23	193	-85	1406	-3170	4459
D:	648.99	-1521	11090	11576	-23	193	-85	1406	-3170	4459
D:	649.88	-1521	11090	11576	-23	158	-131	1406	-3170	4459
D:	650.76	-1521	11090	11576	-26	158	-131	1406	-3170	4459
D:	651.66	-1521	11124	11770	-26	158	-131	1406	-3170	4459
D:	652.54	-1757	11124	11770	-26	158	-131	1406	-3170	4459
D:	653.52	-1757	11124	11770	-26	158	-131	1406	-3170	4459
D:	654.40	-1757	11124	11770	-30	101	180	1406	-3170	4459
D:	655.28	-1757	11124	11770	-30	101	180	1406	-3170	4459
D:	656.21	-1733	11116	11819	-30	101	180	1406	-3170	4459
D:	657.11	-1733	11116	11819	-30	101	180	1406	-3170	4459
D:	658.05	-1733	11116	11819	226	9	27	1406	-3170	4459
D:	659.05	-1733	11116	11819	10	9	27	1406	-3170	4459
D:	659.97	-1702	11098	11644	10	9	27	1406	-3170	4459
D:	660.86	-1702	11098	11644	10	9	27	1406	-3170	4459
D:	661.75	-1702	11098	11644	10	130	-38	1406	-3170	4459
D:	662.65	-1702	11098	11644	-41	130	-38	1406	-3170	4459
D:	663.55	-1702	11098	11644	-41	130	-38	1390	-3168	4477
D:	664.45	-1717	11078	11993	-41	130	-38	1390	-3168	4477
D:	665.35	-1717	11078	11993	-41	130	-38	1390	-3168	4477
D:	666.24	-1717	11078	11993	32	12	-54	1390	-3168	4477
D:	667.17	-1717	11078	11993	32	12	-54	1390	-3168	4477
D:	668.24	-1490	11050	11827	32	12	-54	1390	-3168	4477
D:	669.25	-1490	11050	11827	32	12	-54	1390	-3168	4477
D:	670.13	-1490	11050	11827	-224	113	-10	1390	-3168	4477
D:	671.03	-1490	11050	11827	-54	113	-10	1390	-3168	4477
D:	671.92	-1621	11072	11956	-54	113	-10	1390	-3168	4477
D:	672.81	-1621	11072	11956	-54	113	-10	1390	-3168	4477
D:	673.76	-1621	11072	11956	-54	74	32	1390	-3168	4477
D:	674.65	-1621	11072	11956	52	74	32	1390	-3168	4477
D:	675.53	-1621	11072	11956	52	74	32	1390	-3168	4477
D:	676.41	-1868	11131	11573	52	74	32	1390	-3168	4477
D:	677.28	-1868	11131	11573	52	74	32	1390	-3168	4477
D:	678.20	-1868	11131	11573	-28	143	-44	1390	-3168	4477
D:	679.11	-1868	11131	11573	-28	143	-44	1390	-3168	4477
D:	679.99	-1519	11103	11653	-28	143	-44	1390	-3168	4477
D:	680.86	-1519	11103	11653	-28	143	-44	1390	-3168	4477
D:	681.76	-1519	11103	11653	-28	53	-24	1390	-3168	4477
D:	682.70	-1519	11103	11653	11	53	-24	1397	-3194	4481
D:	683.59	-1519	11103	11653	11	53	-24	1397	-3194	4481
D:	684.49	-1723	11069	11669	11	53	-24	1397	-3194	4481
D:	685.38	-1723	11069	11669	11	53	-24	1397	-3194	4481
D:	686.28	-1723	11069	11669	-21	114	27	1397	-3194	4481
D:	687.31	-1723	11069	11669	-21	114	27	1397	-3194	4481
D:	688.24	-1692	11182	11841	-21	114	27	1397	-3194	4481
D:	689.12	-1692	11182	11841	-21	114	27	1397	-3194	4481
D:	689.99	-1692	11182	11841	-21	206	-3	1397	-3194	4481
D:	690.88	-1692	11182	11841	-40	206	-3	1397	-3194	4481
D:	691.76	-1654	11094	11623	-40	206	-3	1397	-3194	4481
D:	692.65	-1654	11094	11623	-40	206	-3	1397	-3194	4481
D:	693.53	-1654	11094	11623	-40	206	-3	1397	-3194	4481
D:	694.41	-1654	11094	11623	11	127	-47	1397	-3194	4481
D:	695.28	-1654	11094	11623	11	127	-47	1397	-3194	4481
D:	696.21	-1702	11132	11753	11	127	-47	1397	-3194	4481
D:	697.10	-1702	11132	11753	11	127	-47	1397	-3194	4481
D:	697.99	-1702	11132	11753	11	43	-69	1397	-3194	4481
D:	698.89	-1702	11132	11753	-4	43	-69	1397	-3194	4481
D:	699.79	-1547	11150	11846	-4	43	-69	1397	-3194	4481
D:	700.65	-1547	11150	11846	-4	43	-69	1397	-3194	4481
D:	701.54	-1547	11150	11846	-4	43	-69	1397	-3194	4481
D:	702.43	-1547	11150	11846	47	67	-119	1397	-3194	4481
D:	703.34	-1547	11150	11846	47	67	-119	1397	-3144	4499
D:	704.26	-1540	11123	11649	47	67	-119	1397	-3144	4499
D:	705.24	-1540	11123	11649	47	67	-119	1397	-3144	4499
D:	706.13	-1540	11123	11649	47	43	-62	1397	-3144	4499
D:	707.03	-1540	11123	11649	57	43	-62	1398	-3144	4499
D:	707.92	-1705	11166	11810	57	43	-62	1398	-3144	4499
D:	708.82	-1705	11166	11810	57	43	-62	1398	-3144	4499
D:	709.78	-1705	11166	11810	57	72	-67	1398	-3144	4499
D:	710.67	-1705	11166	11810	-4	72	-67	1398	-3144	4499
D:	711.58	-1705	11166	11810	-4	72	-67	1398	-3144	4499
D:	712.49	-1635	11140	11552	-4	72	-67	1398	-3144	4499
D:	713.44	-1635	11140	11552	-4	72	-67	1398	-3144	4499
D:	714.39	-1635	11140	11552	63	73	41	1398	-3144	4499
D:	715.27	-1635	11140	11552	63	73	41	1398	-3144	4499
D:	716.20	-1706	11063	11913	63	73	41	1398	-3144	4499
D:	717.11	-1706	11063	11913	63	73	41	1398	-3144	4499
D:	718.04	-1706	11063	11913	63	109	-46	1398	-3144	4499
D:	719.05	-1706	11063	11913	103	109	-46	1398	-3144	4499
D:	720.01	-1732	11076	11652	103	109	-46	1398	-3144	4499
D:	720.92	-1732	11076	11652	103	109	-46	1398	-3144	4499
D:	721.81	-1732	11076	11652	103	74	-91	1398	-3144	4499
D:	722.76	-1732	11076	11652	-45	74	-91	1398	-3144	4499
D:	723.65	-1732	11068	11762	-45	74	-91	1398	-3144	4499
D:	724.54	-1574	11068	11762	-45	74	-91	1398	-3144	4499
D:	725.41	-1574	11068	11762	-45	74	-91	1398	-3144	4499
D:	726.30	-1574	11068	11762	101	118	-128	1398	-3144	4499
D:	727.20	-1574	11068	11762	101	118	-128	1396	-3186	4519
D:	728.08	-1674	11127	11678	101	118	-128	1396	-3186	4519
D:	728.97	-1674	11127	11678	101	118	-128	1396	-3186	4519
D:	729.86	-1674	11127	11678	101	49	-113	1396	-3186	4519
D:	730.76	-1674	11127	11678	82	49	-113	1396	-3186	4519
D:	731.65	-1674	11122	11747	82	49	-113	1396	-3186	4519
D:	732.53	-1630	11122	11747	82	49	-113	1396	-3186	4519
D:	733.41	-1630	11122	11747	82	49	-113	1396	-3186	4519
D:	734.29	-1630	11122	11747	20	138	-154	1396	-3186	4519
D:	735.23	-1630	11122	11747	20	138	-154	1396	-3186	4519
D:	736.13	-1754	11107	11723	20	138	-154	1396	-3186	4519
D:	737.02	-1754	11107	11723	20	138	-154	1396	-3186	4519
D:	737.89	-1754	11107	11723	20	35	-90	1396	-3186	4519
D:	738.76	-1754	11107	11723	-33	35	-90	1396	-3186	4519
D:	739.65	-1754	11082	11862	-33	35	-90	1396	-3186	4519
D:	740.54	-1735	11082	11862	-33	35	-90	1396	-3186	4519
D:	741.42	-1735	11082	11862	-33	35	-90	1396	-3186	4519
D:	742.32	-1735	11082	11862	33	143	-83	1396	-3186	4519
D:	743.18	-1735	11082	11862	33	143	-83	1396	-3186	4519
D:	744.12	-1567	11174	11521	33	143	-83	1396	-3186	4519
D:	745.01	-1567	11174	11521	33	143	-83	1396	-3186	4519
D:	745.90	-1567	11174	11521	33	108	-115	1396	-3186	4519
D:	746.80	-1567	11174	11521	-62	108	-115	1403	-3165	4508
D:	747.78	-1572	11052	11582	-62	108	-115	1403	-3165	4508
D:	748.67	-1572	11052	11582	-62	108	-115	1403	-3165	4508
D:	749.64	-1572	11052	11582	-62	108	-115	1403	-3165	4508
D:	750.54	-1572	11052	11582	48	97	-108	1403	-3165	4508
D:	751.55	-1572	11052	11582	48	97	-108	1403	-3165	4508
D:	752.49	-1818	11188	11912	48	97	-108	1403	-3165	4508
D:	753.37	-1818	11188	11912	48	97	-108	1403	-3165	4508
D:	754.26	-1818	11188	11912	103	64	-82	1403	-3165	4508
D:	755.22	-1818	11188	11912	103	64	-82	1403	-3165	4508
D:	756.13	-1681	11007	11848	103	64	-82	1403	-3165	4508
D:	757.02	-1681	11007	11848	103	64	-82	1403	-3165	4508
D:	757.91	-1681	11007	11848	103	81	-92	1403	-3165	4508
D:	758.78	-1681	11007	11848	90	81	-92	1403	-3165	4508
D:	759.67	-1690	11209	11625	90	81	-92	1403	-3165	4508
D:	760.56	-1690	11209	11625	90	81	-92	1403	-3165	4508
D:	761.44	-1690	11209	11625	90	81	-92	1403	-3165	4508
D:	762.30	-1690	11209	11625	-5	19	-116	1403	-3165	4508
D:	763.20	-1690	11209	11625	-5	19	-116	1403	-3165	4508
D:	764.11	-1651	11077	11768	-5	19	-116	1403	-3165	4508
D:	764.99	-1651	11077	11768	-5	19	-116	1403	-3165	4508
D:	765.88	-1651	11077	11768	-5	25	-129	1403	-3165	4508
D:	766.75	-1651	11077	11768	55	25	-129	1391	-3177	4481
D:	767.65	-1651	11032	11556	55	25	-129	1391	-3177	4481
D:	768.55	-1515	11032	11556	55	25	-129	1391	-3177	4481
D:	769.44	-1515	11032	11556	55	25	-129	1391	-3177	4481
D:	770.34	-1515	11032	11556	-4	150	-164	1391	-3177	4481
D:	771.21	-1515	11032	11556	-4	150	-164	1391	-3177	4481
D:	772.11	-1667	11090	11877	-4	150	-164	1391	-3177	4481
D:	772.99	-1667	11090	11877	-4	150	-164	1391	-3177	4481
D:	773.88	-1667	11090	11877	-4	122	-119	1391	-3177	4481
D:	774.76	-1667	11090	11877	25	122	-119	1391	-3177	4481
D:	775.65	-1667	11144	12022	25	122	-119	1391	-3177	4481
D:	776.53	-1638	11144	12022	25	122	-119	1391	-3177	4481
D:	777.41	-1638	11144	12022	25	122	-119	1391	-3177	4481
D:	778.28	-1638	11144	12022	-48	128	-54	1391	-3177	4481
D:	779.22	-1638	11144	12022	-48	128	-54	1391	-3177	4481
D:	780.15	-1733	11096	11905	-48	128	-54	1391	-3177	4481
D:	781.06	-1733	11096	11905	-48	128	-54	1391	-3177	4481
D:	781.96	-1733	11096	11905	-48	145	-10	1391	-3177	4481
D:	782.86	-1733	11096	11905	59	145	-10	1391	-3177	4481
D:	783.76	-1653	11155	11809	59	145	-10	1391	-3177	4481
D:	784.65	-1653	11155	11809	59	145	-10	1391	-3177	4481
D:	785.53	-1653	11155	11809	59	145	-10	1391	-3177	4481
D:	786.43	-1653	11155	11809	62	148	-123	1391	-3177	4481
D:	787.30	-1653	11155	11809	62	148	-123	1407	-3147	4361
D:	788.22	-1682	11110	11768	62	148	-123	1407	-3147	4361
D:	789.13	-1682	11110	11768	62	148	-123	1407	-3147	4361
D:	790.03	-1682	11110	11768	62	-13	-60	1407	-3147	4361
D:	790.92	-1682	11110	11768	7	-13	-60	1407	-3147	4361
D:	791.82	-1743	11108	11651	7	-13	-60	1407	-3147	4361
D:	792.77	-1743	11108	11651	7	-13	-60	1407	-3147	4361
D:	793.71	-1743	11108	11651	7	-13	-60	1407	-3147	4361
D:	794.65	-1743	11108	11651	55	127	-105	1407	-3147	4361
D:	795.54	-1743	11108	11651	55	127	-105	1407	-3147	4361
D:	796.41	-1704	11186	11811	55	127	-105	1407	-3147	4361
D:	797.33	-1704	11186	11811	55	127	-105	1407	-3147	4361
D:	798.21	-1704	11186	11811	74	126	-94	1407	-3147	4361
D:	799.10	-1704	11186	11811	74	126	-94	1407	-3147	4361
D:	800.00	-1758	11140	11689	74	126	-94	1407	-3147	4361
D:	800.92	-1758	11140	11689	74	126	-94	1407	-3147	4361
D:	801.83	-1758	11140	11689	74	52	-62	1407	-3147	4361
D:	802.75	-1758	11140	11689	70	52	-62	1407	-3147	4361
D:	803.65	-1758	11132	11748	70	52	-62	1407	-3147	4361
D:	804.53	-1713	11132	11748	70	52	-62	1407	-3147	4361
D:	805.40	-1713	11132	11748	70	52	-62	1407	-3147	4361
D:	806.28	-1713	11132	11748	36	70	-65	1407	-3147	4361
D:	807.21	-1713	11132	11748	36	70	-65	1411	-3191	4469
D:	808.11	-1563	11148	11922	36	70	-65	1411	-3191	4469
D:	808.99	-1563	11148	11922	36	70	-65	1411	-3191	4469
D:	809.86	-1563	11148	11922	36	37	-32	1411	-3191	4469
D:	810.76	-1563	11148	11922	0	37	-32	1411	-3191	4469
D:	811.65	-1563	11132	11600	0	37	-32	1411	-3191	4469
D:	812.53	-1635	11132	11600	0	37	-32	1411	-3191	4469
D:	813.41	-1635	11132	11600	0	37	-32	1411	-3191	4469
D:	814.28	-1635	11132	11600	0	178	-74	1411	-3191	4469
D:	815.20	-1635	11132	11600	0	178	-74	1411	-3191	4469
D:	816.11	-1712	11203	11866	0	178	-74	1411	-3191	4469
D:	817.03	-1712	11203	11866	0	178	-74	1411	-3191	4469
D:	817.98	-1712	11203	11866	0	126	-104	1411	-3191	4469
D:	818.98	-1712	11203	11866	2	126	-104	1411	-3191	4469
D:	819.89	-1621	11063	11728	2	126	-104	1411	-3191	4469
D:	820.79	-1621	11063	11728	2	126	-104	1411	-3191	4469
D:	821.67	-1621	11063	11728	2	126	-104	1411	-3191	4469
D:	822.55	-1621	11063	11728	50	137	-138	1411	-3191	4469
D:	823.44	-1621	11063	11728	50	137	-138	1411	-3191	4469
D:	824.31	-1792	11110	11699	50	137	-138	1411	-3191	4469
D:	825.21	-1792	11110	11699	50	137	-138	1411	-3191	4469
D:	826.12	-1792	11110	11699	50	69	12	1411	-3191	4469
D:	826.99	-1792	11110	11699	98	69	12	1413	-3171	4661
D:	827.86	-1666	11100	11923	98	69	12	1413	-3171	4661
D:	828.76	-1666	11100	11923	98	69	12	1413	-3171	4661
D:	829.78	-1666	11100	11923	98	116	-114	1413	-3171	4661
D:	830.71	-1666	11100	11923	79	116	-114	1413	-3171	4661
D:	831.58	-1666	11100	11923	79	116	-114	1413	-3171	4661
D:	832.49	-1553	11062	11697	79	116	-114	1413	-3171	4661
D:	833.41	-1553	11062	11697	79	116	-114	1413	-3171	4661
D:	834.33	-1553	11062	11697	111	56	-133	1413	-3171	4661
D:	835.28	-1553	11062	11697	111	56	-133	1413	-3171	4661
D:	836.25	-1767	11186	11647	111	56	-133	1413	-3171	4661
D:	837.23	-1767	11186	11647	111	56	-133	1413	-3171	4661
D:	838.11	-1767	11186	11647	111	79	-82	1413	-3171	4661
D:	839.03	-1767	11186	11647	120	79	-82	1413	-3171	4661
D:	839.94	-1596	11184	12024	120	79	-82	1413	-3171	4661
D:	840.84	-1596	11184	12024	120	79	-82	1413	-3171	4661
D:	841.75	-1596	11184	12024	120	119	-78	1413	-3171	4661
D:	842.65	-1596	11184	12024	151	119	-78	1413	-3171	4661
D:	843.53	-1596	11184	12024	151	119	-78	1413	-3171	4661
D:	844.41	-1714	11000	11648	151	119	-78	1413	-3171	4661
D:	845.28	-1714	11000	11648	151	119	-78	1413	-3171	4661
D:	846.20	-1714	11000	11648	97	38	-140	1413	-3171	4661
D:	847.19	-1714	11000	11648	97	38	-140	1405	-3179	4493
D:	848.14	-1851	11079	11861	97	38	-140	1405	-3179	4493
D:	849.02	-1851	11079	11861	97	38	-140	1405	-3179	4493
D:	849.91	-1851	11079	11861	97	80	-94	1405	-3179	4493
D:	850.78	-1851	11079	11861	40	80	-94	1405	-3179	4493
D:	851.67	-1713	11144	11794	40	80	-94	1405	-3179	4493
D:	852.57	-1713	11144	11794	40	80	-94	1405	-3179	4493
D:	853.51	-1713	11144	11794	40	80	-94	1405	-3179	4493
D:	854.39	-1713	11144	11794	74	15	-146	1405	-3179	4493
D:	855.25	-1713	11144	11794	74	15	-146	1405	-3179	4493
D:	856.16	-1731	11150	11827	74	15	-146	1405	-3179	4493
D:	857.06	-1731	11150	11827	74	15	-146	1405	-3179	4493
D:	857.93	-1731	11150	11827	74	33	-126	1405	-3179	4493
D:	858.90	-1731	11150	11827	172	33	-126	1405	-3179	4493
D:	859.88	-1681	11150	11971	172	33	-126	1405	-3179	4493
D:	860.76	-1681	11150	11971	172	33	-126	1405	-3179	4493
D:	861.65	-1681	11150	11971	172	33	-126	1405	-3179	4493
D:	862.54	-1681	11150	11971	97	35	-172	1405	-3179	4493
D:	863.41	-1681	11150	11971	97	35	-172	1405	-3179	4493
D:	864.30	-1557	11116	11758	97	35	-172	1405	-3179	4493
D:	865.30	-1557	11116	11758	97	35	-172	1405	-3179	4493
D:	866.25	-1557	11116	11758	53	44	-175	1405	-3179	4493
D:	867.21	-1557	11116	11758	53	44	-175	1405	-3179	4612
D:	868.25	-1483	11148	11692	53	44	-175	1405	-3179	4612
D:	869.25	-1483	11148	11692	53	44	-175	1405	-3179	4612
D:	870.14	-1483	11148	11692	53	-27	-196	1405	-3179	4612
D:	871.01	-1483	11148	11692	25	-27	-196	1419	-3151	4612
D:	871.90	-1694	11084	12001	25	-27	-196	1419	-3151	4612
D:	872.79	-1694	11084	12001	25	-27	-196	1419	-3151	4612
D:	873.71	-1694	11084	12001	25	-27	-196	1419	-3151	4612
D:	874.59	-1694	11084	12001	95	-2	-180	1419	-3151	4612
D:	875.48	-1694	11084	12001	95	-2	-180	1419	-3151	4612
D:	876.36	-1653	11179	11713	95	-2	-180	1419	-3151	4612
D:	877.25	-1653	11179	11713	95	-2	-180	1419	-3151	4612
D:	878.21	-1653	11179	11713	89	5	-152	1419	-3151	4612
D:	879.11	-1653	11179	11713	89	5	-152	1419	-3151	4612
D:	880.00	-1772	11068	11784	89	5	-152	1419	-3151	4612
D:	880.89	-1772	11068	11784	89	5	-152	1419	-3151	4612
D:	881.76	-1772	11068	11784	89	92	-142	1419	-3151	4612
D:	882.66	-1772	11068	11784	85	92	-142	1419	-3151	4612
D:	883.54	-1772	11068	11784	85	92	-142	1419	-3151	4612
D:	884.53	-1680	11133	11853	85	92	-142	1419	-3151	4612
D:	885.44	-1680	11133	11853	85	92	-142	1419	-3151	4612
D:	886.31	-1680	11133	11853	54	88	-188	1419	-3151	4612
D:	887.23	-1680	11133	11853	54	88	-188	1419	-3151	4612
D:	888.11	-1571	11051	11723	54	88	-188	1419	-3151	4612
D:	888.99	-1571	11051	11723	54	88	-188	1419	-3151	4612
D:	889.86	-1571	11051	11723	54	-79	-147	1419	-3151	4612
D:	890.75	-1571	11051	11723	127	-79	-147	1395	-3190	4490
D:	891.65	-1571	11174	11769	127	-79	-147	1395	-3190	4490
D:	892.53	-1741	11174	11769	127	-79	-147	1395	-3190	4490
D:	893.41	-1741	11174	11769	127	-79	-147	1395	-3190	4490
D:	894.27	-1741	11174	11769	53	112	-111	1395	-3190	4490
D:	895.20	-1741	11174	11769	53	112	-111	1395	-3190	4490
D:	896.11	-1678	11096	11858	53	112	-111	1395	-3190	4490
D:	896.99	-1678	11096	11858	53	112	-111	1395	-3190	4490
D:	897.88	-1678	11096	11858	53	67	-134	1395	-3190	4490
D:	898.75	-1678	11096	11858	32	67	-134	1395	-3190	4490
D:	899.65	-1678	11110	11653	32	67	-134	1395	-3190	4490
D:	900.54	-1822	11110	11653	32	67	-134	1395	-3190	4490
D:	901.44	-1822	11110	11653	32	67	-134	1395	-3190	4490
D:	902.34	-1822	11110	11653	109	36	-154	1395	-3190	4490
D:	903.23	-1822	11110	11653	109	36	-154	1395	-3190	4490
D:	904.10	-1725	11111	11720	109	36	-154	1395	-3190	4490
D:	904.99	-1725	11111	11720	109	36	-154	1395	-3190	4490
D:	905.86	-1725	11111	11720	109	55	-144	1395	-3190	4490
D:	906.76	-1725	11111	11720	107	55	-144	1395	-3190	4490
D:	907.65	-1725	11114	11774	107	55	-144	1395	-3190	4490
D:	908.53	-1686	11114	11774	107	55	-144	1395	-3190	4490
D:	909.42	-1686	11114	11774	107	55	-144	1395	-3190	4490
D:	910.31	-1686	11114	11774	182	50	-140	1395	-3190	4490
D:	911.20	-1686	11114	11774	182	50	-140	1423	-3180	4309
D:	912.12	-1539	11048	11560	182	50	-140	1423	-3180	4309
D:	913.03	-1539	11048	11560	182	50	-140	1423	-3180	4309
D:	913.92	-1539	11048	11560	182	29	-117	1423	-3180	4309
D:	914.80	-1539	11048	11560	108	29	-117	1423	-3180	4309
D:	915.71	-1719	11186	11843	108	29	-117	1423	-3180	4309
D:	916.67	-1719	11186	11843	108	29	-117	1423	-3180	4309
D:	917.56	-1719	11186	11843	108	29	-117	1423	-3180	4309
D:	918.54	-1719	11186	11843	176	137	-134	1423	-3180	4309
D:	919.44	-1719	11186	11843	176	137	-134	1423	-3180	4309
D:	920.45	-1618	11076	11464	176	137	-134	1423	-3180	4309
D:	921.37	-1618	11076	11464	176	137	-134	1423	-3180	4309
D:	922.26	-1618	11076	11464	213	83	-123	1423	-3180	4309
D:	923.20	-1618	11076	11464	213	83	-123	1423	-3180	4309
D:	924.11	-1757	11148	11866	213	83	-123	1423	-3180	4309
D:	924.99	-1757	11148	11866	213	83	-123	1423	-3180	4309
D:	925.86	-1757	11148	11866	213	27	-183	1423	-3180	4309
D:	926.76	-1757	11148	11866	96	27	-183	1423	-3180	4309
D:	927.65	-1757	11106	11700	96	27	-183	1423	-3180	4309
D:	928.53	-1539	11106	11700	96	27	-183	1423	-3180	4309
D:	929.42	-1539	11106	11700	96	27	-183	1423	-3180	4309
D:	930.31	-1539	11106	11700	109	53	-140	1423	-3180	4309
D:	931.31	-1539	11106	11700	109	53	-140	1409	-3198	4500
D:	932.25	-1683	11084	11617	109	53	-140	1409	-3198	4500
D:	933.13	-1683	11084	11617	109	53	-140	1409	-3198	4500
D:	934.01	-1683	11084	11617	109	108	-188	1409	-3198	4500
D:	934.90	-1683	11084	11617	110	108	-188	1409	-3198	4500
D:	935.81	-1761	11181	11720	110	108	-188	1409	-3198	4500
D:	936.77	-1761	11181	11720	110	108	-188	1409	-3198	4500
D:	937.65	-1761	11181	11720	110	108	-188	1409	-3198	4500
D:	938.53	-1761	11181	11720	147	106	-210	1409	-3198	4500
D:	939.42	-1761	11181	11720	147	106	-210	1409	-3198	4500
D:	940.31	-1648	11109	11802	147	106	-210	1409	-3198	4500
D:	941.21	-1648	11109	11802	147	106	-210	1409	-3198	4500
D:	942.11	-1648	11109	11802	147	113	-195	1409	-3198	4500
D:	942.99	-1648	11109	11802	176	113	-195	1409	-3198	4500
D:	943.86	-1676	11146	11772	176	113	-195	1409	-3198	4500
D:	944.76	-1676	11146	11772	176	113	-195	1409	-3198	4500
D:	945.65	-1676	11146	11772	176	113	-195	1409	-3198	4500
D:	946.53	-1676	11146	11772	217	96	-187	1409	-3198	4500
D:	947.42	-1676	11146	11772	217	96	-187	1409	-3198	4500
D:	948.31	-1804	11098	11811	217	96	-187	1409	-3198	4500
D:	949.20	-1804	11098	11811	217	96	-187	1409	-3198	4500
D:	950.15	-1804	11098	11811	464	24	-210	1409	-3198	4500
D:	951.07	-1804	11098	11811	464	24	-210	1413	-3148	4466
D:	951.99	-1618	11185	11755	464	24	-210	1413	-3148	4466
D:	952.99	-1618	11185	11755	464	24	-210	1413	-3148	4466
D:	953.93	-1618	11185	11755	464	155	-206	1413	-3148	4466
D:	954.83	-1618	11185	11755	229	155	-206	1413	-3148	4466
D:	955.77	-1794	11150	11814	229	155	-206	1413	-3148	4466
D:	956.65	-1794	11150	11814	229	155	-206	1413	-3148	4466
D:	957.53	-1794	11150	11814	229	155	-206	1413	-3148	4466
D:	958.45	-1794	11150	11814	272	169	-160	1413	-3148	4466
D:	959.35	-1794	11150	11814	272	169	-160	1413	-3148	4466
D:	960.25	-1725	11185	11894	272	169	-160	1413	-3148	4466
D:	961.23	-1725	11185	11894	272	169	-160	1413	-3148	4466
D:	962.19	-1725	11185	11894	206	231	-112	1413	-3148	4466
D:	963.11	-1725	11185	11894	206	231	-112	1413	-3148	4466
D:	964.00	-1721	11164	11548	206	231	-112	1413	-3148	4466
D:	964.89	-1721	11164	11548	206	231	-112	1413	-3148	4466
D:	965.78	-1721	11164	11548	206	163	-193	1413	-3148	4466
D:	966.65	-1721	11164	11548	149	163	-193	1413	-3148	4466
D:	967.56	-1781	11168	11664	149	163	-193	1413	-3148	4466
D:	968.67	-1781	11168	11664	149	163	-193	1413	-3148	4466
D:	969.65	-1781	11168	11664	149	163	-193	1413	-3148	4466
D:	970.51	-1781	11168	11664	130	150	-165	1413	-3148	4466
D:	971.38	-1781	11168	11664	130	150	-165	1412	-3184	4501
D:	972.25	-1698	11227	11870	130	150	-165	1412	-3184	4501
D:	973.20	-1698	11227	11870	130	150	-165	1412	-3184	4501
D:	974.11	-1698	11227	11870	130	165	-104	1412	-3184	4501
D:	974.99	-1698	11227	11870	89	165	-104	1412	-3184	4501
D:	975.95	-1763	11186	11661	89	165	-104	1412	-3184	4501
D:	976.85	-1763	11186	11661	89	165	-104	1412	-3184	4501
D:	977.76	-1763	11186	11661	89	235	-138	1412	-3184	4501
D:	978.65	-1763	11186	11661	16	235	-138	1412	-3184	4501
D:	979.53	-1763	11186	11661	16	235	-138	1412	-3184	4501
D:	980.41	-1772	11207	11942	16	235	-138	1412	-3184	4501
D:	981.28	-1772	11207	11942	16	235	-138	1412	-3184	4501
D:	982.21	-1772	11207	11942	35	277	-170	1412	-3184	4501
D:	983.11	-1772	11207	11942	35	277	-170	1412	-3184	4501
D:	983.99	-1676	11090	11709	35	277	-170	1412	-3184	4501
D:	984.87	-1676	11090	11709	35	277	-170	1412	-3184	4501
D:	985.76	-1676	11090	11709	35	225	-50	1412	-3184	4501
D:	986.65	-1676	11090	11709	44	225	-50	1412	-3184	4501
D:	987.52	-1676	11090	11709	44	225	-50	1412	-3184	4501
D:	988.38	-1743	11128	11702	44	225	-50	1412	-3184	4501
D:	989.26	-1743	11128	11702	44	225	-50	1412	-3184	4501
D:	990.21	-1743	11128	11702	-17	200	-21	1412	-3184	4501
D:	991.10	-1743	11128	11702	-17	200	-21	1420	-3169	4699
D:	991.99	-1852	11191	11838	-17	200	-21	1420	-3169	4699
D:	992.86	-1852	11191	11838	-17	200	-21	1420	-3169	4699
D:	993.76	-1852	11191	11838	-17	225	-110	1420	-3169	4699
D:	994.65	-1852	11191	11838	-7	225	-110	1420	-3169	4699
D:	995.54	-1852	11191	11838	-7	225	-110	1420	-3169	4699
D:	996.42	-1747	11139	11715	-7	225	-110	1420	-3169	4699
D:	997.31	-1747	11139	11715	-7	225	-110	1420	-3169	4699
D:	998.25	-1747	11139	11715	-76	210	-114	1420	-3169	4699
D:	999.17	-1747	11139	11715	-76	210	-114	1420	-3169	4699
D:	1000.18	-1800	11232	11552	-76	210	-114	1420	-3169	4699
D:	1001.14	-1800	11232	11552	-76	210	-114	1420	-3169	4699
D:	1002.14	-1800	11232	11552	-76	178	-108	1420	-3169	4699
D:	1003.13	-1800	11232	11552	-81	178	-108	1420	-3169	4699
D:	1004.17	-1645	11147	11765	-81	178	-108	1420	-3169	4699
D:	1005.13	-1645	11147	11765	-81	178	-108	1420	-3169	4699
D:	1006.08	-1645	11147	11765	-81	168	-58	1420	-3169	4699
D:	1007.11	-1645	11147	11765	-51	168	-58	1420	-3169	4699
D:	1008.14	-1619	11171	11922	-51	168	-58	1420	-3169	4699
D:	1009.14	-1619	11171	11922	-51	168	-58	1420	-3169	4699
D:	1010.14	-1619	11171	11922	-68	130	-66	1420	-3169	4699
D:	1011.03	-1619	11171	11922	-68	130	-66	1423	-3179	4466
D:	1011.96	-1779	11108	11873	-68	130	-66	1423	-3179	4466
D:	1012.87	-1779	11108	11873	-68	130	-66	1423	-3179	4466
D:	1013.79	-1779	11108	11873	-68	106	-39	1423	-3179	4466
D:	1014.73	-1779	11108	11873	-21	106	-39	1423	-3179	4466
D:	1015.66	-1872	11140	11902	-21	106	-39	1423	-3179	4466
D:	1016.59	-1872	11140	11902	-21	106	-39	1423	-3179	4466
D:	1017.50	-1872	11140	11902	-21	106	-39	1423	-3179	4466
D:	1018.42	-1872	11140	11902	201	131	-77	1423	-3179	4466
D:	1019.32	-1872	11140	11902	201	131	-77	1423	-3179	4466
D:	1020.22	-1759	11219	11813	201	131	-77	1423	-3179	4466
D:	1021.11	-1759	11219	11813	201	131	-77	1423	-3179	4466
D:	1021.99	-1759	11219	11813	201	-12	-97	1423	-3179	4466
D:	1022.86	-1759	11219	11813	18	-12	-97	1423	-3179	4466
D:	1023.76	-2002	11245	11925	18	-12	-97	1423	-3179	4466
D:	1024.65	-2002	11245	11925	18	-12	-97	1423	-3179	4466
D:	1025.53	-2002	11245	11925	18	-12	-97	1423	-3179	4466
D:	1026.41	-2002	11245	11925	37	-52	-130	1423	-3179	4466
D:	1027.27	-2002	11245	11925	37	-52	-130	1423	-3179	4466
D:	1028.20	-1509	11066	11584	37	-52	-130	1423	-3179	4466
D:	1029.11	-1509	11066	11584	37	-52	-130	1423	-3179	4466
D:	1029.99	-1509	11066	11584	37	-31	-113	1423	-3179	4466
D:	1030.86	-1509	11066	11584	13	-31	-113	1423	-3179	4287
D:	1031.76	-1797	11202	11807	13	-31	-113	1423	-3179	4287
D:	1032.65	-1797	11202	11807	13	-31	-113	1423	-3179	4287
D:	1033.52	-1797	11202	11807	13	-31	-113	1423	-3179	4287
D:	1034.42	-1797	11202	11807	-30	-9	-52	1423	-3179	4287
D:	1035.31	-1797	11202	11807	-30	-9	-52	1419	-3195	4287
D:	1036.21	-1822	11233	11754	-30	-9	-52	1419	-3195	4287
D:	1037.27	-1822	11233	11754	-30	-9	-52	1419	-3195	4287
D:	1038.25	-1822	11233	11754	65	-87	-127	1419	-3195	4287
D:	1039.14	-1822	11233	11754	65	-87	-127	1419	-3195	4287
D:	1040.04	-1628	11106	11612	65	-87	-127	1419	-3195	4287
D:	1040.94	-1628	11106	11612	65	-87	-127	1419	-3195	4287
D:	1041.84	-1628	11106	11612	65	-152	-36	1419	-3195	4287
D:	1042.76	-1628	11106	11612	37	-152	-36	1419	-3195	4287
D:	1043.65	-1628	11195	11789	37	-152	-36	1419	-3195	4287
D:	1044.53	-1810	11195	11789	37	-152	-36	1419	-3195	4287
D:	1045.43	-1810	11195	11789	37	-152	-36	1419	-3195	4287
D:	1046.31	-1810	11195	11789	56	-136	-102	1419	-3195	4287
D:	1047.21	-1810	11195	11789	56	-136	-102	1419	-3195	4287
D:	1048.11	-1658	11146	11598	56	-136	-102	1419	-3195	4287
D:	1048.99	-1658	11146	11598	56	-136	-102	1419	-3195	4287
D:	1049.92	-1658	11146	11598	56	-29	-55	1419	-3195	4287
D:	1050.88	-1658	11146	11598	59	-29	-55	1419	-3195	4287
D:	1051.96	-1678	11175	11747	59	-29	-55	1419	-3195	4287
D:	1052.87	-1678	11175	11747	59	-29	-55	1419	-3195	4287
D:	1053.76	-1678	11175	11747	59	-38	-51	1419	-3195	4287
D:	1054.65	-1678	11175	11747	83	-38	-51	1419	-3195	4287
D:	1055.53	-1678	11175	11747	83	-38	-51	1415	-3163	4528
D:	1056.41	-1774	11202	11851	83	-38	-51	1415	-3163	4528
D:	1057.41	-1774	11202	11851	83	-38	-51	1415	-3163	4528
D:	1058.37	-1774	11202	11851	22	-69	-106	1415	-3163	4528
D:	1059.26	-1774	11202	11851	22	-69	-106	1415	-3163	4528
D:	1060.20	-1635	11214	11538	22	-69	-106	1415	-3163	4528
D:	1061.10	-1635	11214	11538	22	-69	-106	1415	-3163	4528
D:	1061.99	-1635	11214	11538	22	-29	-55	1415	-3163	4528
D:	1062.88	-1635	11214	11538	48	-29	-55	1415	-3163	4528
D:	1063.76	-1711	11164	11755	48	-29	-55	1415	-3163	4528
D:	1064.65	-1711	11164	11755	48	-29	-55	1415	-3163	4528
D:	1065.53	-1711	11164	11755	48	-29	-55	1415	-3163	4528
D:	1066.41	-1711	11164	11755	28	25	-67	1415	-3163	4528
D:	1067.27	-1711	11164	11755	28	25	-67	1415	-3163	4528
D:	1068.31	-1726	11235	11845	28	25	-67	1415	-3163	4528
D:	1069.23	-1726	11235	11845	28	25	-67	1415	-3163	4528
D:	1070.12	-1726	11235	11845	28	36	-11	1415	-3163	4528
D:	1071.00	-1726	11235	11845	90	36	-11	1415	-3163	4528
D:	1071.88	-1653	11054	11418	90	36	-11	1415	-3163	4528
D:	1072.76	-1653	11054	11418	90	36	-11	1415	-3163	4528
D:	1073.65	-1653	11054	11418	90	36	-11	1415	-3163	4528
D:	1074.53	-1653	11054	11418	-51	110	-33	1415	-3163	4528
D:	1075.41	-1653	11054	11418	-51	110	-33	1425	-3179	4662
D:	1076.28	-1713	11160	11887	-51	110	-33	1425	-3179	4662
D:	1077.21	-1713	11160	11887	-51	110	-33	1425	-3179	4662
D:	1078.21	-1713	11160	11887	4	-7	-17	1425	-3179	4662
D:	1079.20	-1713	11160	11887	4	-7	-17	1425	-3179	4662
D:	1080.12	-1651	11121	11670	4	-7	-17	1425	-3179	4662
D:	1081.03	-1651	11121	11670	4	-7	-17	1425	-3179	4662
D:	1081.92	-1651	11121	11670	4	100	-9	1425	-3179	4662
D:	1082.90	-1651	11121	11670	-71	100	-9	1425	-3179	4662
D:	1083.78	-1788	11218	11951	-71	100	-9	1425	-3179	4662
D:	1084.75	-1788	11218	11951	-71	100	-9	1425	-3179	4662
D:	1085.67	-1788	11218	11951	-71	100	-9	1425	-3179	4662
D:	1086.67	-1788	11218	11951	-49	57	75	1425	-3179	4662
D:	1087.67	-1638	11196	11746	-49	57	75	1425	-3179	4662
D:	1088.56	-1638	11196	11746	-49	57	75	1425	-3179	4662
D:	1089.43	-1638	11196	11746	-49	57	75	1425	-3179	4662
D:	1090.32	-1638	11196	11746	-35	105	14	1425	-3179	4662
D:	1091.29	-1638	11196	11746	-35	105	14	1425	-3179	4662
D:	1092.32	-1689	11051	11549	-35	105	14	1425	-3179	4662
D:	1093.23	-1689	11051	11549	-35	105	14	1425	-3179	4662
D:	1094.10	-1689	11051	11549	-35	215	42	1425	-3179	4662
D:	1094.99	-1689	11051	11549	-34	215	42	1416	-3169	4524
D:	1095.86	-1805	11243	11945	-34	215	42	1416	-3169	4524
D:	1096.76	-1805	11243	11945	-34	215	42	1416	-3169	4524
D:	1097.65	-1805	11243	11945	-34	215	42	1416	-3169	4524
D:	1098.53	-1805	11243	11945	-69	156	25	1416	-3169	4524
D:	1099.41	-1805	11243	11945	-69	156	25	1416	-3169	4524
D:	1100.28	-1667	11099	11832	-69	156	25	1416	-3169	4524
D:	1101.21	-1667	11099	11832	-69	156	25	1416	-3169	4524
D:	1102.11	-1667	11099	11832	-69	160	-21	1416	-3169	4524
D:	1102.99	-1667	11099	11832	-115	160	-21	1416	-3169	4524
D:	1103.85	-1672	11172	11452	-115	160	-21	1416	-3169	4524
D:	1104.76	-1672	11172	11452	-115	160	-21	1416	-3169	4524
D:	1105.65	-1672	11172	11452	-115	160	-21	1416	-3169	4524
D:	1106.53	-1672	11172	11452	-49	186	37	1416	-3169	4524
D:	1107.40	-1672	11172	11452	-49	186	37	1416	-3169	4524
D:	1108.27	-1742	11166	11984	-49	186	37	1416	-3169	4524
D:	1109.21	-1742	11166	11984	-49	186	37	1416	-3169	4524
D:	1110.10	-1742	11166	11984	-49	115	34	1416	-3169	4524
D:	1110.99	-1742	11166	11984	-118	115	34	1416	-3169	4524
D:	1111.87	-1617	11098	11626	-118	115	34	1416	-3169	4524
D:	1112.76	-1617	11098	11626	-118	115	34	1416	-3169	4524
D:	1113.65	-1617	11098	11626	-118	115	34	1416	-3169	4524
D:	1114.53	-1617	11098	11626	-58	129	73	1416	-3169	4524
D:	1115.41	-1617	11098	11626	-58	129	73	1413	-3139	4482
D:	1116.27	-1721	11126	11749	-58	129	73	1413	-3139	4482
D:	1117.20	-1721	11126	11749	-58	129	73	1413	-3139	4482
D:	1118.19	-1721	11126	11749	24	21	27	1413	-3139	4482
D:	1119.13	-1721	11126	11749	24	21	27	1413	-3139	4482
D:	1120.11	-1759	11104	11851	24	21	27	1413	-3139	4482
D:	1121.17	-1759	11104	11851	24	21	27	1413	-3139	4482
D:	1122.22	-1759	11104	11851	-95	135	-15	1413	-3139	4482
D:	1123.13	-1759	11104	11851	-95	135	-15	1413	-3139	4482
D:	1124.03	-1565	11163	11424	-95	135	-15	1413	-3139	4482
D:	1124.92	-1565	11163	11424	-95	135	-15	1413	-3139	4482
D:	1125.81	-1565	11163	11424	-95	2	78	1413	-3139	4482
D:	1126.76	-1565	11163	11424	-59	2	78	1413	-3139	4482
D:	1127.65	-1565	11110	11718	-59	2	78	1413	-3139	4482
D:	1128.56	-1848	11110	11718	-59	2	78	1413	-3139	4482
D:	1129.49	-1848	11110	11718	-59	2	78	1413	-3139	4482
D:	1130.38	-1848	11110	11718	-62	-49	6	1413	-3139	4482
D:	1131.34	-1848	11110	11718	-62	-49	6	1413	-3139	4482
D:	1132.23	-1690	11045	11692	-62	-49	6	1413	-3139	4482
D:	1133.11	-1690	11045	11692	-62	-49	6	1413	-3139	4482
D:	1133.96	-1690	11045	11692	-62	-13	68	1413	-3139	4482
D:	1134.91	-1690	11045	11692	-131	-13	68	1421	-3159	4589
D:	1135.81	-1631	11178	11499	-131	-13	68	1421	-3159	4589
D:	1136.77	-1631	11178	11499	-131	-13	68	1421	-3159	4589
D:	1137.80	-1631	11178	11499	-131	101	47	1421	-3159	4589
D:	1138.76	-1631	11178	11499	-59	101	47	1421	-3159	4589
D:	1139.65	-1631	11201	11888	-59	101	47	1421	-3159	4589
D:	1140.53	-1705	11201	11888	-59	101	47	1421	-3159	4589
D:	1141.40	-1705	11201	11888	-59	101	47	1421	-3159	4589
D:	1142.28	-1705	11201	11888	-103	-3	57	1421	-3159	4589
D:	1143.21	-1705	11201	11888	-103	-3	57	1421	-3159	4589
D:	1144.10	-1574	11078	11845	-103	-3	57	1421	-3159	4589
D:	1144.99	-1574	11078	11845	-103	-3	57	1421	-3159	4589
D:	1145.88	-1574	11078	11845	-103	93	21	1421	-3159	4589
D:	1146.76	-1574	11078	11845	-23	93	21	1421	-3159	4589
D:	1147.65	-1574	11196	11680	-23	93	21	1421	-3159	4589
D:	1148.53	-1798	11196	11680	-23	93	21	1421	-3159	4589
D:	1149.45	-1798	11196	11680	-23	93	21	1421	-3159	4589
D:	1150.34	-1798	11196	11680	15	21	49	1421	-3159	4589
D:	1151.23	-1798	11196	11680	15	21	49	1421	-3159	4589
D:	1152.13	-1685	11146	11803	15	21	49	1421	-3159	4589
D:	1153.05	-1685	11146	11803	15	21	49	1421	-3159	4589
D:	1153.94	-1685	11146	11803	15	-13	52	1421	-3159	4589
D:	1154.81	-1685	11146	11803	-72	-13	52	1409	-3157	4553
D:	1155.71	-1725	11090	11520	-72	-13	52	1409	-3157	4553
D:	1156.65	-1725	11090	11520	-72	-13	52	1409	-3157	4553
D:	1157.53	-1725	11090	11520	-72	-13	52	1409	-3157	4553
D:	1158.40	-1725	11090	11520	-48	7	60	1409	-3157	4553
D:	1159.26	-1725	11090	11520	-48	7	60	1409	-3157	4553
D:	1160.21	-1737	11132	11884	-48	7	60	1409	-3157	4553
D:	1161.11	-1737	11132	11884	-48	7	60	1409	-3157	4553
D:	1162.00	-1737	11132	11884	-48	-11	-26	1409	-3157	4553
D:	1162.89	-1737	11132	11884	-142	-11	-26	1409	-3157	4553
D:	1163.76	-1693	11184	11627	-142	-11	-26	1409	-3157	4553
D:	1164.65	-1693	11184	11627	-142	-11	-26	1409	-3157	4553
D:	1165.55	-1693	11184	11627	-142	-11	-26	1409	-3157	4553
D:	1166.44	-1693	11184	11627	46	-20	18	1409	-3157	4553
D:	1167.34	-1693	11184	11627	46	-20	18	1409	-3157	4553
D:	1168.24	-1818	11170	11745	46	-20	18	1409	-3157	4553
D:	1169.13	-1818	11170	11745	46	-20	18	1409	-3157	4553
D:	1170.14	-1818	11170	11745	46	-64	-22	1409	-3157	4553
D:	1171.02	-1818	11170	11745	99	-64	-22	1409	-3157	4553
D:	1171.90	-1620	11096	11671	99	-64	-22	1409	-3157	4553
D:	1172.83	-1620	11096	11671	99	-64	-22	1409	-3157	4553
D:	1173.79	-1620	11096	11671	99	51	-51	1409	-3157	4553
D:	1174.67	-1620	11096	11671	-19	51	-51	1409	-3157	4553
D:	1175.54	-1620	11096	11671	-19	51	-51	1403	-3160	4439
D:	1176.43	-1587	11119	11745	-19	51	-51	1403	-3160	4439
D:	1177.30	-1587	11119	11745	-19	51	-51	1403	-3160	4439
D:	1178.20	-1587	11119	11745	-148	71	49	1403	-3160	4439
D:	1179.11	-1587	11119	11745	-148	71	49	1403	-3160	4439
D:	1179.99	-1711	11156	11788	-148	71	49	1403	-3160	4439
D:	1180.88	-1711	11156	11788	-148	71	49	1403	-3160	4439
D:	1181.76	-1711	11156	11788	-148	68	-16	1403	-3160	4439
D:	1182.65	-1711	11156	11788	-76	68	-16	1403	-3160	4439
D:	1183.53	-1711	11156	11788	-76	68	-16	1403	-3160	4439
D:	1184.40	-1827	11199	11803	-76	68	-16	1403	-3160	4439
D:	1185.30	-1827	11199	11803	-76	68	-16	1403	-3160	4439
D:	1186.20	-1827	11199	11803	-5	54	-18	1403	-3160	4439
D:	1187.11	-1827	11199	11803	-5	54	-18	1403	-3160	4439
D:	1188.01	-1669	11106	11777	-5	54	-18	1403	-3160	4439
D:	1188.88	-1669	11106	11777	-5	54	-18	1403	-3160	4439
D:	1189.76	-1669	11106	11777	-5	28	26	1403	-3160	4439
D:	1190.65	-1669	11106	11777	51	28	26	1403	-3160	4439
D:	1191.54	-1669	11106	11777	51	28	26	1403	-3160	4439
D:	1192.41	-1714	11119	11823	51	28	26	1403	-3160	4439
D:	1193.27	-1714	11119	11823	51	28	26	1403	-3160	4439
D:	1194.21	-1714	11119	11823	58	65	28	1403	-3160	4439
D:	1195.10	-1714	11119	11823	58	65	28	1403	-3160	4439
D:	1196.00	-1599	11078	11797	58	65	28	1403	-3160	4439
D:	1196.88	-1599	11078	11797	58	65	28	1403	-3160	4439
D:	1197.76	-1599	11078	11797	58	151	-3	1403	-3160	4439
D:	1198.65	-1599	11078	11797	6	151	-3	1403	-3160	4439
D:	1199.54	-1599	11078	11797	6	151	-3	1397	-3160	4487
D:	1200.41	-1690	11095	11795	6	151	-3	1397	-3160	4487
D:	1201.29	-1690	11095	11795	6	151	-3	1397	-3160	4487
D:	1202.20	-1690	11095	11795	17	78	-20	1397	-3160	4487
D:	1203.17	-1690	11095	11795	17	78	-20	1397	-3160	4487
D:	1204.16	-1555	11140	11742	17	78	-20	1397	-3160	4487
D:	1205.07	-1555	11140	11742	17	78	-20	1397	-3160	4487
D:	1205.97	-1555	11140	11742	17	-2	1	1397	-3160	4487
D:	1206.86	-1555	11140	11742	50	-2	1	1397	-3160	4487
D:	1207.76	-1558	11148	11496	50	-2	1	1397	-3160	4487
D:	1208.65	-1558	11148	11496	50	-2	1	1397	-3160	4487
D:	1209.54	-1558	11148	11496	50	-2	1	1397	-3160	4487
D:	1210.42	-1558	11148	11496	106	20	-43	1397	-3160	4487
D:	1211.32	-1558	11148	11496	106	20	-43	1397	-3160	4487
D:	1212.24	-1766	11181	11893	106	20	-43	1397	-3160	4487
D:	1213.13	-1766	11181	11893	106	20	-43	1397	-3160	4487
D:	1214.01	-1766	11181	11893	106	-59	-34	1397	-3160	4487
D:	1214.90	-1766	11181	11893	7	-59	-34	1397	-3160	4487
D:	1215.78	-1571	11045	11800	7	-59	-34	1397	-3160	4487
D:	1216.71	-1571	11045	11800	7	-59	-34	1397	-3160	4487
D:	1217.68	-1571	11045	11800	7	55	-18	1397	-3160	4487
D:	1218.75	-1571	11045	11800	-19	55	-18	1412	-3138	4553
D:	1219.71	-1755	11198	11911	-19	55	-18	1412	-3138	4553
D:	1220.65	-1755	11198	11911	-19	55	-18	1412	-3138	4553
D:	1221.53	-1755	11198	11911	-19	55	-18	1412	-3138	4553
D:	1222.42	-1755	11198	11911	-33	77	-30	1412	-3138	4553
D:	1223.30	-1755	11198	11911	-33	77	-30	1412	-3138	4553
D:	1224.20	-1608	11123	11943	-33	77	-30	1412	-3138	4553
D:	1225.10	-1608	11123	11943	-33	77	-30	1412	-3138	4553
D:	1225.99	-1608	11123	11943	-33	154	13	1412	-3138	4553
D:	1226.85	-1608	11123	11943	3	154	13	1412	-3138	4553
D:	1227.75	-1556	11152	11582	3	154	13	1412	-3138	4553
D:	1228.65	-1556	11152	11582	3	154	13	1412	-3138	4553
D:	1229.52	-1556	11152	11582	3	154	13	1412	-3138	4553
D:	1230.51	-1556	11152	11582	-13	121	-76	1412	-3138	4553
D:	1231.47	-1556	11152	11582	-13	121	-76	1412	-3138	4553
D:	1232.36	-1797	11187	11750	-13	121	-76	1412	-3138	4553
D:	1233.23	-1797	11187	11750	-13	121	-76	1412	-3138	4553
D:	1234.12	-1797	11187	11750	243	38	-124	1412	-3138	4553
D:	1235.01	-1797	11187	11750	8	38	-124	1412	-3138	4553
D:	1235.88	-1610	11130	11821	8	38	-124	1412	-3138	4553
D:	1236.77	-1610	11130	11821	8	38	-124	1412	-3138	4553
D:	1237.65	-1610	11130	11821	8	38	-124	1412	-3138	4553
D:	1238.52	-1610	11130	11821	-61	112	-101	1412	-3138	4553
D:	1239.52	-1610	11130	11821	-61	112	-101	1419	-3181	4453
D:	1240.41	-1733	11082	11694	-61	112	-101	1419	-3181	4453
D:	1241.31	-1733	11082	11694	-61	112	-101	1419	-3181	4453
D:	1242.21	-1733	11082	11694	6	203	-164	1419	-3181	4453
D:	1243.15	-1733	11082	11694	6	203	-164	1419	-3181	4453
D:	1244.15	-1646	11186	11784	6	203	-164	1419	-3181	4453
D:	1245.07	-1646	11186	11784	6	203	-164	1419	-3181	4453
D:	1245.98	-1646	11186	11784	6	72	-201	1419	-3181	4453
D:	1246.86	-1646	11186	11784	-24	72	-201	1419	-3181	4453
D:	1247.75	-1669	11074	11499	-24	72	-201	1419	-3181	4453
D:	1248.65	-1669	11074	11499	-24	72	-201	1419	-3181	4453
D:	1249.55	-1669	11074	11499	-24	72	-201	1419	-3181	4453
D:	1250.45	-1669	11074	11499	17	96	-65	1419	-3181	4453
D:	1251.44	-1669	11074	11499	17	96	-65	1419	-3181	4453
D:	1252.35	-1718	11113	11896	17	96	-65	1419	-3181	4453
D:	1253.29	-1718	11113	11896	17	96	-65	1419	-3181	4453
D:	1254.21	-1718	11113	11896	73	147	-159	1419	-3181	4453
D:	1255.10	-1718	11113	11896	73	147	-159	1419	-3181	4453
D:	1255.99	-1690	11104	11797	73	147	-159	1419	-3181	4453
D:	1256.87	-1690	11104	11797	73	147	-159	1419	-3181	4453
D:	1257.76	-1690	11104	11797	73	65	-170	1419	-3181	4453
D:	1258.65	-1690	11104	11797	112	65	-170	1419	-3181	4453
D:	1259.52	-1690	11104	11797	112	65	-170	1399	-3141	4441
D:	1260.51	-1643	11096	11735	112	65	-170	1399	-3141	4441
D:	1261.44	-1643	11096	11735	112	65	-170	1399	-3141	4441
D:	1262.32	-1643	11096	11735	19	139	-176	1399	-3141	4441
D:	1263.20	-1643	11096	11735	19	139	-176	1399	-3141	4441
D:	1264.10	-1721	11143	11657	19	139	-176	1399	-3141	4441
D:	1264.99	-1721	11143	11657	19	139	-176	1399	-3141	4441
D:	1265.86	-1721	11143	11657	19	128	-206	1399	-3141	4441
D:	1266.76	-1721	11143	11657	49	128	-206	1399	-3141	4441
D:	1267.65	-1721	11146	11909	49	128	-206	1399	-3141	4441
D:	1268.55	-1684	11146	11909	49	128	-206	1399	-3141	4441
D:	1269.43	-1684	11146	11909	49	128	-206	1399	-3141	4441
D:	1270.31	-1684	11146	11909	88	-33	-152	1399	-3141	4441
D:	1271.20	-1684	11146	11909	88	-33	-152	1399	-3141	4441
D:	1272.16	-1678	11081	11785	88	-33	-152	1399	-3141	4441
D:	1273.06	-1678	11081	11785	88	-33	-152	1399	-3141	4441
D:	1273.93	-1678	11081	11785	88	28	-217	1399	-3141	4441
D:	1274.80	-1678	11081	11785	72	28	-217	1399	-3141	4441
D:	1275.67	-1746	11114	11838	72	28	-217	1399	-3141	4441
D:	1276.55	-1746	11114	11838	72	28	-217	1399	-3141	4441
D:	1277.43	-1746	11114	11838	72	28	-217	1399	-3141	4441
D:	1278.29	-1746	11114	11838	105	28	-95	1399	-3141	4441
D:	1279.29	-1746	11114	11838	105	28	-95	1422	-3161	4494
D:	1280.20	-1686	11104	11924	105	28	-95	1422	-3161	4494
D:	1281.09	-1686	11104	11924	105	28	-95	1422	-3161	4494
D:	1282.00	-1686	11104	11924	105	67	-183	1422	-3161	4494
D:	1282.92	-1686	11104	11924	33	67	-183	1422	-3161	4494
D:	1283.90	-1700	11141	11837	33	67	-183	1422	-3161	4494
D:	1284.78	-1700	11141	11837	33	67	-183	1422	-3161	4494
D:	1285.67	-1700	11141	11837	33	67	-183	1422	-3161	4494
D:	1286.71	-1700	11141	11837	49	96	-143	1422	-3161	4494
D:	1287.65	-1700	11141	11924	49	96	-143	1422	-3161	4494
D:	1288.55	-1739	11141	11924	49	96	-143	1422	-3161	4494
D:	1289.45	-1739	11141	11924	49	96	-143	1422	-3161	4494
D:	1290.37	-1739	11141	11924	51	73	-139	1422	-3161	4494
D:	1291.38	-1739	11141	11924	51	73	-139	1422	-3161	4494
D:	1292.26	-1644	11116	11666	51	73	-139	1422	-3161	4494
D:	1293.24	-1644	11116	11666	51	73	-139	1422	-3161	4494
D:	1294.10	-1644	11116	11666	51	77	-219	1422	-3161	4494
D:	1294.98	-1644	11116	11666	10	77	-219	1422	-3161	4494
D:	1295.86	-1736	11156	11795	10	77	-219	1422	-3161	4494
D:	1296.75	-1736	11156	11795	10	77	-219	1422	-3161	4494
D:	1297.66	-1736	11156	11795	10	77	-219	1422	-3161	4494
D:	1298.53	-1736	11156	11795	74	168	-153	1422	-3161	4494
D:	1299.43	-1736	11156	11795	74	168	-153	1422	-3139	4508
D:	1300.30	-1648	11245	12004	74	168	-153	1422	-3139	4508
D:	1301.30	-1648	11245	12004	74	168	-153	1422	-3139	4508
D:	1302.24	-1648	11245	12004	64	202	-120	1422	-3139	4508
D:	1303.18	-1648	11245	12004	64	202	-120	1422	-3139	4508
D:	1304.11	-1680	11184	11633	64	202	-120	1422	-3139	4508
D:	1304.97	-1680	11184	11633	64	202	-120	1422	-3139	4508
D:	1305.85	-1680	11184	11633	64	190	-147	1422	-3139	4508
D:	1306.76	-1680	11184	11633	67	190	-147	1422	-3139	4508
D:	1307.65	-1680	11082	11883	67	190	-147	1422	-3139	4508
D:	1308.53	-1737	11082	11883	67	190	-147	1422	-3139	4508
D:	1309.41	-1737	11082	11883	67	190	-147	1422	-3139	4508
D:	1310.30	-1737	11082	11883	157	226	-232	1422	-3139	4508
D:	1311.20	-1737	11082	11883	157	226	-232	1422	-3139	4508
D:	1312.10	-1589	11108	11531	157	226	-232	1422	-3139	4508
D:	1312.99	-1589	11108	11531	157	226	-232	1422	-3139	4508
D:	1313.86	-1589	11108	11531	157	234	-175	1422	-3139	4508
D:	1314.76	-1589	11108	11531	48	234	-175	1422	-3139	4508
D:	1315.65	-1589	11168	11664	48	234	-175	1422	-3139	4508
D:	1316.54	-1713	11168	11664	48	234	-175	1422	-3139	4508
D:	1317.45	-1713	11168	11664	48	234	-175	1422	-3139	4508
D:	1318.51	-1713	11168	11664	61	195	-141	1422	-3139	4508
D:	1319.45	-1713	11168	11664	61	195	-141	1427	-3175	4471
D:	1320.33	-1851	11184	12045	61	195	-141	1427	-3175	4471
D:	1321.20	-1851	11184	12045	61	195	-141	1427	-3175	4471
D:	1322.09	-1851	11184	12045	61	246	-148	1427	-3175	4471
D:	1322.96	-1851	11184	12045	41	246	-148	1427	-3175	4471
D:	1323.83	-1666	11165	11591	41	246	-148	1427	-3175	4471
D:	1324.76	-1666	11165	11591	41	246	-148	1427	-3175	4471
D:	1325.65	-1666	11165	11591	41	246	-148	1427	-3175	4471
D:	1326.52	-1666	11165	11591	170	136	-54	1427	-3175	4471
D:	1327.41	-1666	11165	11591	170	136	-54	1427	-3175	4471
D:	1328.28	-1802	11112	11743	170	136	-54	1427	-3175	4471
D:	1329.21	-1802	11112	11743	170	136	-54	1427	-3175	4471
D:	1330.08	-1802	11112	11743	170	233	-49	1427	-3175	4471
D:	1331.20	-1802	11112	11743	160	233	-49	1427	-3175	4471
D:	1332.12	-1785	11158	11830	160	233	-49	1427	-3175	4471
D:	1333.02	-1785	11158	11830	160	233	-49	1427	-3175	4471
D:	1333.88	-1785	11158	11830	160	118	0	1427	-3175	4471
D:	1334.86	-1785	11158	11830	170	118	0	1427	-3175	4471
D:	1335.87	-1729	11098	11663	170	118	0	1427	-3175	4471
D:	1336.78	-1729	11098	11663	170	118	0	1427	-3175	4471
D:	1337.72	-1729	11098	11663	170	118	0	1427	-3175	4471
D:	1338.65	-1729	11098	11663	150	250	-15	1427	-3175	4471
D:	1339.54	-1729	11098	11663	150	250	-15	1427	-3141	4592
D:	1340.45	-1781	11142	11887	150	250	-15	1427	-3141	4592
D:	1341.33	-1781	11142	11887	150	250	-15	1427	-3141	4592
D:	1342.22	-1781	11142	11887	101	236	-69	1427	-3141	4592
D:	1343.17	-1781	11142	11887	101	236	-69	1424	-3141	4592
D:	1344.12	-1626	11113	11774	101	236	-69	1424	-3141	4592
D:	1345.00	-1626	11113	11774	101	236	-69	1424	-3141	4592
D:	1345.88	-1626	11113	11774	101	127	56	1424	-3141	4592
D:	1346.80	-1626	11113	11774	106	127	56	1424	-3141	4592
D:	1347.84	-1769	11172	11819	106	127	56	1424	-3141	4592
D:	1348.84	-1769	11172	11819	106	127	56	1424	-3141	4592
D:	1349.77	-1769	11172	11819	106	127	45	1424	-3141	4592
D:	1350.66	-1769	11172	11819	174	127	45	1424	-3141	4592
D:	1351.68	-1759	11191	11721	174	127	45	1424	-3141	4592
D:	1352.70	-1759	11191	11721	174	127	45	1424	-3141	4592
D:	1353.66	-1759	11191	11721	174	127	45	1424	-3141	4592
D:	1354.57	-1759	11191	11721	214	128	-11	1424	-3141	4592
D:	1355.48	-1759	11191	11721	214	128	-11	1424	-3141	4592
D:	1356.35	-1658	11093	11514	214	128	-11	1424	-3141	4592
D:	1357.24	-1658	11093	11514	214	128	-11	1424	-3141	4592
D:	1358.13	-1658	11093	11514	214	181	-13	1424	-3141	4592
D:	1359.00	-1658	11093	11514	108	181	-13	1424	-3141	4592
D:	1359.88	-1721	11196	11927	108	181	-13	1424	-3141	4592
D:	1360.75	-1721	11196	11927	108	181	-13	1424	-3141	4592
D:	1361.65	-1721	11196	11927	108	181	-13	1424	-3141	4592
D:	1362.53	-1721	11196	11927	47	197	17	1424	-3141	4592
D:	1363.40	-1721	11196	11927	47	197	17	1417	-3178	4366
D:	1364.27	-1770	11170	12028	47	197	17	1417	-3178	4366
D:	1365.20	-1770	11170	12028	47	197	17	1417	-3178	4366
D:	1366.14	-1770	11170	12028	104	185	-14	1417	-3178	4366
D:	1367.17	-1770	11170	12028	104	185	-14	1417	-3178	4366
D:	1368.12	-1591	11124	11768	104	185	-14	1417	-3178	4366
D:	1369.00	-1591	11124	11768	104	185	-14	1417	-3178	4366
D:	1369.94	-1591	11124	11768	104	186	-50	1417	-3178	4366
D:	1370.83	-1591	11124	11768	163	186	-50	1417	-3178	4366
D:	1371.75	-1669	11198	11948	163	186	-50	1417	-3178	4366
D:	1372.65	-1669	11198	11948	163	186	-50	1417	-3178	4366
D:	1373.52	-1669	11198	11948	163	186	-50	1417	-3178	4366
D:	1374.40	-1669	11198	11948	166	225	-43	1417	-3178	4366
D:	1375.27	-1669	11198	11948	166	225	-43	1417	-3178	4366
D:	1376.21	-1563	11156	11821	166	225	-43	1417	-3178	4366
D:	1377.10	-1563	11156	11821	166	225	-43	1417	-3178	4366
D:	1377.99	-1563	11156	11821	166	243	-97	1417	-3178	4366
D:	1378.85	-1563	11156	11821	125	243	-97	1417	-3178	4366
D:	1379.75	-1668	11186	12021	125	243	-97	1417	-3178	4366
D:	1380.65	-1668	11186	12021	125	243	-97	1417	-3178	4366
D:	1381.66	-1668	11186	12021	125	243	-97	1417	-3178	4366
D:	1382.66	-1668	11186	12021	171	202	-47	1417	-3178	4366
D:	1383.54	-1668	11186	12021	171	202	-47	1425	-3145	4393
D:	1384.41	-1789	11116	11760	171	202	-47	1425	-3145	4393
D:	1385.31	-1789	11116	11760	171	202	-47	1425	-3145	4393
D:	1386.24	-1789	11116	11760	128	176	-110	1425	-3145	4393
D:	1387.22	-1789	11116	11760	128	176	-110	1425	-3145	4393
D:	1388.16	-1327	11207	11533	128	176	-110	1425	-3145	4393
D:	1389.18	-1327	11207	11533	128	176	-110	1425	-3145	4393
D:	1390.11	-1327	11207	11533	128	190	-68	1425	-3145	4393
D:	1391.00	-1327	11207	11533	137	190	-68	1425	-3145	4393
D:	1391.89	-1777	11170	11812	137	190	-68	1425	-3145	4393
D:	1392.79	-1777	11170	11812	137	190	-68	1425	-3145	4393
D:	1393.71	-1777	11170	11812	137	190	-68	1425	-3145	4393
D:	1394.65	-1777	11170	11812	87	72	-76	1425	-3145	4393
D:	1395.67	-1683	11146	11758	87	72	-76	1425	-3145	4393
D:	1396.68	-1683	11146	11758	87	72	-76	1425	-3145	4393
D:	1397.57	-1683	11146	11758	87	72	-76	1425	-3145	4393
D:	1398.47	-1683	11146	11758	80	167	-90	1425	-3145	4393
D:	1399.36	-1683	11146	11758	80	167	-90	1425	-3145	4393
D:	1400.25	-1701	11136	11633	80	167	-90	1425	-3145	4393
D:	1401.28	-1701	11136	11633	80	167	-90	1425	-3145	4393
D:	1402.30	-1701	11136	11633	83	184	94	1425	-3145	4393
D:	1403.23	-1701	11136	11633	83	184	94	1425	-3165	4442
D:	1404.10	-1794	11188	11888	83	184	94	1425	-3165	4442
D:	1404.99	-1794	11188	11888	83	184	94	1425	-3165	4442
D:	1405.88	-1794	11188	11888	83	15	-43	1425	-3165	4442
D:	1406.76	-1794	11188	11888	110	15	-43	1425	-3165	4442
D:	1407.65	-1794	11125	11667	110	15	-43	1425	-3165	4442
D:	1408.53	-1704	11125	11667	110	15	-43	1425	-3165	4442
D:	1409.40	-1704	11125	11667	110	15	-43	1425	-3165	4442
D:	1410.28	-1704	11125	11667	123	31	-55	1425	-3165	4442
D:	1411.20	-1704	11125	11667	123	31	-55	1425	-3165	4442
D:	1412.11	-1700	11134	12022	123	31	-55	1425	-3165	4442
D:	1413.14	-1700	11134	12022	123	31	-55	1425	-3165	4442
D:	1414.01	-1700	11134	12022	123	76	-52	1425	-3165	4442
D:	1414.95	-1700	11134	12022	152	76	-52	1425	-3165	4442
D:	1415.93	-1950	11234	11838	152	76	-52	1425	-3165	4442
D:	1416.90	-1950	11234	11838	152	76	-52	1425	-3165	4442
D:	1417.78	-1950	11234	11838	152	51	-84	1425	-3165	4442
D:	1418.71	-1950	11234	11838	77	51	-84	1425	-3165	4442
D:	1419.69	-1702	11130	11530	77	51	-84	1425	-3165	4442
D:	1420.65	-1702	11130	11530	77	51	-84	1425	-3165	4442
D:	1421.54	-1702	11130	11530	77	51	-84	1425	-3165	4442
D:	1422.41	-1702	11130	11530	-20	135	-135	1425	-3165	4442
D:	1423.27	-1702	11130	11530	-20	135	-135	1417	-3145	4419
D:	1424.21	-1846	11202	11794	-20	135	-135	1417	-3145	4419
D:	1425.11	-1846	11202	11794	-20	135	-135	1417	-3145	4419
D:	1425.99	-1846	11202	11794	-20	204	-92	1417	-3145	4419
D:	1426.89	-1846	11202	11794	35	204	-92	1417	-3145	4419
D:	1427.79	-1715	11189	11982	35	204	-92	1417	-3145	4419
D:	1428.65	-1715	11189	11982	35	204	-92	1417	-3145	4419
D:	1429.67	-1715	11189	11982	35	61	-65	1417	-3145	4419
D:	1430.68	-1715	11189	11982	95	61	-65	1417	-3145	4419
D:	1431.57	-1715	11189	11982	95	61	-65	1417	-3145	4419
D:	1432.50	-1704	11212	11616	95	61	-65	1417	-3145	4419
D:	1433.48	-1704	11212	11616	95	61	-65	1417	-3145	4419
D:	1434.49	-1704	11212	11616	254	140	-67	1417	-3145	4419
D:	1435.38	-1704	11212	11616	254	140	-67	1417	-3145	4419
D:	1436.26	-1792	11153	11747	254	140	-67	1417	-3145	4419
D:	1437.28	-1792	11153	11747	254	140	-67	1417	-3145	4419
D:	1438.22	-1792	11153	11747	35	182	-60	1417	-3145	4419
D:	1439.16	-1792	11153	11747	35	182	-60	1417	-3145	4419
D:	1440.11	-1746	11101	11595	35	182	-60	1417	-3145	4419
D:	1441.11	-1746	11101	11595	35	182	-60	1417	-3145	4419
D:	1442.17	-1746	11101	11595	8	196	-39	1417	-3145	4419
D:	1443.11	-1746	11101	11595	8	196	-39	1421	-3184	4493
D:	1443.99	-1726	11113	11670	8	196	-39	1421	-3184	4493
D:	1444.86	-1726	11113	11670	8	196	-39	1421	-3184	4493
D:	1445.76	-1726	11113	11670	8	55	-65	1421	-3184	4493
D:	1446.65	-1726	11113	11670	140	55	-65	1421	-3184	4493
D:	1447.53	-1726	11113	11670	140	55	-65	1421	-3184	4493
D:	1448.40	-1749	11245	11840	140	55	-65	1421	-3184	4493
D:	1449.29	-1749	11245	11840	140	55	-65	1421	-3184	4493
D:	1450.21	-1749	11245	11840	58	120	-155	1421	-3184	4493
D:	1451.12	-1749	11245	11840	58	120	-155	1421	-3184	4493
D:	1452.04	-1790	11224	11822	58	120	-155	1421	-3184	4493
D:	1452.90	-1790	11224	11822	58	120	-155	1421	-3184	4493
D:	1453.78	-1790	11224	11822	58	174	-43	1421	-3184	4493
D:	1454.70	-1790	11224	11822	-41	174	-43	1421	-3184	4493
D:	1455.59	-1790	11224	11822	-41	174	-43	1421	-3184	4493
D:	1456.48	-1803	11236	11803	-41	174	-43	1421	-3184	4493
D:	1457.36	-1803	11236	11803	-41	174	-43	1421	-3184	4493
D:	1458.23	-1803	11236	11803	43	151	-19	1421	-3184	4493
D:	1459.11	-1803	11236	11803	43	151	-19	1421	-3184	4493
D:	1459.99	-1649	11203	11623	43	151	-19	1421	-3184	4493
D:	1460.88	-1649	11203	11623	43	151	-19	1421	-3184	4493
D:	1461.76	-1649	11203	11623	43	92	-72	1421	-3184	4493
D:	1462.65	-1649	11203	11623	-2	92	-72	1421	-3184	4493
D:	1463.52	-1649	11203	11623	-2	92	-72	1419	-3174	4497
D:	1464.40	-1667	11115	11956	-2	92	-72	1419	-3174	4497
D:	1465.27	-1667	11115	11956	-2	92	-72	1419	-3174	4497
D:	1466.20	-1667	11115	11956	16	100	-30	1419	-3174	4497
D:	1467.11	-1667	11115	11956	16	100	-30	1419	-3174	4497
D:	1467.99	-1755	11249	11825	16	100	-30	1419	-3174	4497
D:	1468.88	-1755	11249	11825	16	100	-30	1419	-3174	4497
D:	1469.88	-1755	11249	11825	16	22	-95	1419	-3174	4497
D:	1470.85	-1755	11249	11825	-33	22	-95	1419	-3174	4497
D:	1471.76	-1606	11130	11596	-33	22	-95	1419	-3174	4497
D:	1472.65	-1606	11130	11596	-33	22	-95	1419	-3174	4497
D:	1473.53	-1606	11130	11596	-33	22	-95	1419	-3174	4497
D:	1474.41	-1606	11130	11596	14	172	-87	1419	-3174	4497
D:	1475.35	-1606	11130	11596	14	172	-87	1419	-3174	4497
D:	1476.24	-1786	11146	11513	14	172	-87	1419	-3174	4497
D:	1477.13	-1786	11146	11513	14	172	-87	1419	-3174	4497
D:	1478.04	-1786	11146	11513	14	163	-148	1419	-3174	4497
D:	1478.92	-1786	11146	11513	-24	163	-148	1419	-3174	4497
D:	1479.82	-1731	11142	11849	-24	163	-148	1419	-3174	4497
D:	1480.77	-1731	11142	11849	-24	163	-148	1419	-3174	4497
D:	1481.73	-1731	11142	11849	-24	134	-123	1419	-3174	4497
D:	1482.67	-1731	11142	11849	-100	134	-123	1419	-3174	4415
D:	1483.56	-1731	11142	11849	-100	134	-123	1413	-3188	4415
D:	1484.49	-1731	11089	11462	-100	134	-123	1413	-3188	4415
D:	1485.54	-1731	11089	11462	-100	134	-123	1413	-3188	4415
D:	1486.51	-1731	11089	11462	-3	173	-85	1413	-3188	4415
D:	1487.50	-1731	11089	11462	-3	173	-85	1413	-3188	4415
D:	1488.41	-1814	11146	11905	-3	173	-85	1413	-3188	4415
D:	1489.28	-1814	11146	11905	-3	173	-85	1413	-3188	4415
D:	1490.21	-1814	11146	11905	61	223	-75	1413	-3188	4415
D:	1491.11	-1814	11146	11905	61	223	-75	1413	-3188	4415
D:	1491.99	-1699	11151	11709	61	223	-75	1413	-3188	4415
D:	1492.88	-1699	11151	11709	61	223	-75	1413	-3188	4415
D:	1493.76	-1699	11151	11709	61	112	-110	1413	-3188	4415
D:	1494.65	-1699	11151	11709	61	112	-110	1413	-3188	4415
D:	1495.53	-1699	11151	11709	61	112	-110	1413	-3188	4415
D:	1496.40	-1690	11158	11756	61	112	-110	1413	-3188	4415
D:	1497.28	-1690	11158	11756	61	112	-110	1413	-3188	4415
D:	1498.20	-1690	11158	11756	48	35	-19	1413	-3188	4415
D:	1499.09	-1690	11158	11756	48	35	-19	1413	-3188	4415
D:	1499.96	-1723	11198	11675	48	35	-19	1413	-3188	4415
D:	1500.83	-1723	11198	11675	48	35	-19	1413	-3188	4415
D:	1501.76	-1723	11198	11675	48	224	-71	1413	-3188	4415
D:	1502.66	-1723	11198	11675	-25	224	-71	1413	-3188	4614
D:	1503.66	-1738	11106	11697	-25	224	-71	1413	-3175	4614
D:	1504.65	-1738	11106	11697	-25	224	-71	1413	-3175	4614
D:	1505.54	-1738	11106	11697	-25	224	-71	1413	-3175	4614
D:	1506.44	-1738	11106	11697	29	94	-28	1413	-3175	4614
D:	1507.33	-1738	11106	11697	29	94	-28	1429	-3175	4614
D:	1508.19	-1638	11100	11986	29	94	-28	1429	-3175	4614
D:	1509.11	-1638	11100	11986	29	94	-28	1429	-3175	4614
D:	1510.18	-1638	11100	11986	70	76	-49	1429	-3175	4614
D:	1511.11	-1638	11100	11986	70	76	-49	1429	-3175	4614
D:	1511.99	-1773	11162	11772	70	76	-49	1429	-3175	4614
D:	1512.87	-1773	11162	11772	70	76	-49	1429	-3175	4614
D:	1513.76	-1773	11162	11772	70	62	-30	1429	-3175	4614
D:	1514.66	-1773	11162	11772	60	62	-30	1429	-3175	4614
D:	1515.58	-1773	11162	11772	60	62	-30	1429	-3175	4614
D:	1516.51	-1827	11130	11818	60	62	-30	1429	-3175	4614
D:	1517.39	-1827	11130	11818	60	62	-30	1429	-3175	4614
D:	1518.36	-1827	11130	11818	-17	61	15	1429	-3175	4614
D:	1519.28	-1827	11130	11818	-17	61	15	1429	-3175	4614
D:	1520.21	-1733	11509	11949	-17	61	15	1429	-3175	4614
D:	1521.14	-1733	11509	11949	-17	61	15	1429	-3175	4614
D:	1522.07	-1733	11509	11949	239	84	-43	1429	-3175	4614
D:	1522.98	-1733	11509	11949	28	84	-43	1429	-3175	4614
D:	1523.87	-1633	11124	11768	28	84	-43	1429	-3175	4614
D:	1524.79	-1633	11124	11768	28	84	-43	1429	-3175	4614
D:	1525.71	-1633	11124	11768	28	84	-43	1429	-3175	4614
D:	1526.59	-1633	11124	11768	65	153	-116	1429	-3175	4614
D:	1527.49	-1633	11124	11768	65	153	-116	1423	-3180	4536
D:	1528.35	-1754	11143	11854	65	153	-116	1423	-3180	4536
D:	1529.23	-1754	11143	11854	65	153	-116	1423	-3180	4536
D:	1530.09	-1754	11143	11854	65	46	-147	1423	-3180	4536
D:	1530.96	-1754	11143	11854	90	46	-147	1423	-3180	4536
D:	1531.83	-1806	11204	11882	90	46	-147	1423	-3180	4536
D:	1532.75	-1806	11204	11882	90	46	-147	1423	-3180	4536
D:	1533.65	-1806	11204	11882	90	46	-147	1423	-3180	4536
D:	1534.57	-1806	11204	11882	10	-14	-90	1423	-3180	4536
D:	1535.47	-1806	11204	11882	10	-14	-90	1423	-3180	4536
D:	1536.40	-1835	11154	11768	10	-14	-90	1423	-3180	4536
D:	1537.38	-1835	11154	11768	10	-14	-90	1423	-3180	4536
D:	1538.25	-1835	11154	11768	59	67	-62	1423	-3180	4536
D:	1539.20	-1835	11154	11768	59	67	-62	1423	-3180	4536
D:	1540.11	-1753	11270	11814	59	67	-62	1423	-3180	4536
D:	1540.99	-1753	11270	11814	59	67	-62	1423	-3180	4536
D:	1541.92	-1753	11270	11814	59	39	-96	1423	-3180	4536
D:	1542.90	-1753	11270	11814	69	39	-96	1423	-3180	4536
D:	1543.78	-1666	11196	11563	69	39	-96	1423	-3180	4536
D:	1544.67	-1666	11196	11563	69	39	-96	1423	-3180	4536
D:	1545.55	-1666	11196	11563	69	39	-96	1423	-3180	4536
D:	1546.42	-1666	11196	11563	-9	170	-149	1423	-3180	4536
D:	1547.30	-1666	11196	11563	-9	170	-149	1437	-3162	4503
D:	1548.21	-1881	11188	11670	-9	170	-149	1437	-3162	4503
D:	1549.15	-1881	11188	11670	-9	170	-149	1437	-3162	4503
D:	1550.06	-1881	11188	11670	247	192	-135	1437	-3162	4503
D:	1550.94	-1881	11188	11670	39	192	-135	1437	-3162	4503
D:	1551.83	-1739	11240	11798	39	192	-135	1437	-3162	4503
D:	1552.75	-1739	11240	11798	39	192	-135	1437	-3162	4503
D:	1553.74	-1739	11240	11798	39	48	-100	1437	-3162	4503
D:	1554.71	-1739	11240	11798	69	48	-100	1437	-3162	4503
D:	1555.65	-1742	11128	11560	69	48	-100	1437	-3162	4503
D:	1556.55	-1742	11128	11560	69	48	-100	1437	-3162	4503
D:	1557.48	-1742	11128	11560	69	48	-100	1437	-3162	4503
D:	1558.43	-1742	11128	11560	-8	47	-96	1437	-3162	4503
D:	1559.31	-1742	11128	11560	-8	47	-96	1437	-3162	4503
D:	1560.23	-1650	11134	11880	-8	47	-96	1437	-3162	4503
D:	1561.13	-1650	11134	11880	-8	47	-96	1437	-3162	4503
D:	1562.02	-1650	11134	11880	-8	63	-86	1437	-3162	4503
D:	1562.92	-1650	11134	11880	10	63	-86	1437	-3162	4503
D:	1563.81	-1681	11162	11727	10	63	-86	1437	-3162	4503
D:	1564.77	-1681	11162	11727	10	63	-86	1437	-3162	4503
D:	1565.71	-1681	11162	11727	10	63	-86	1437	-3162	4503
D:	1566.65	-1681	11162	11727	20	125	-90	1437	-3162	4503
D:	1567.71	-1845	11123	11449	20	125	-90	1422	-3193	4525
D:	1568.80	-1845	11123	11449	20	125	-90	1422	-3193	4525
D:	1569.81	-1845	11123	11449	20	77	-103	1422	-3193	4525
D:	1570.76	-1845	11123	11449	84	77	-103	1422	-3193	4525
D:	1571.65	-1845	11166	11878	84	77	-103	1422	-3193	4525
D:	1572.54	-1718	11166	11878	84	77	-103	1422	-3193	4525
D:	1573.43	-1718	11166	11878	84	77	-103	1422	-3193	4525
D:	1574.42	-1718	11166	11878	44	106	-116	1422	-3193	4525
D:	1575.34	-1718	11166	11878	44	106	-116	1422	-3193	4525
D:	1576.31	-1728	11152	11482	44	106	-116	1422	-3193	4525
D:	1577.30	-1728	11152	11482	44	106	-116	1422	-3193	4525
D:	1578.21	-1728	11152	11482	33	70	-48	1422	-3193	4525
D:	1579.10	-1728	11152	11482	33	70	-48	1422	-3193	4525
D:	1579.99	-1841	11134	11968	33	70	-48	1422	-3193	4525
D:	1580.88	-1841	11134	11968	33	70	-48	1422	-3193	4525
D:	1581.75	-1841	11134	11968	33	109	-85	1422	-3193	4525
D:	1582.65	-1841	11134	11968	25	109	-85	1422	-3193	4525
D:	1583.53	-1841	11134	11968	25	109	-85	1422	-3193	4525
D:	1584.45	-1678	11140	11629	25	109	-85	1422	-3193	4525
D:	1585.45	-1678	11140	11629	25	109	-85	1422	-3193	4525
D:	1586.33	-1678	11140	11629	88	37	-41	1422	-3193	4525
D:	1587.22	-1678	11140	11629	88	37	-41	1435	-3148	4297
D:	1588.11	-1653	11192	11703	88	37	-41	1435	-3148	4297
D:	1588.99	-1653	11192	11703	88	37	-41	1435	-3148	4297
D:	1589.86	-1653	11192	11703	88	106	-104	1435	-3148	4297
D:	1590.75	-1653	11192	11703	28	106	-104	1435	-3148	4297
D:	1591.65	-1653	11176	11900	28	106	-104	1435	-3148	4297
D:	1592.53	-1842	11176	11900	28	106	-104	1435	-3148	4297
D:	1593.40	-1842	11176	11900	28	106	-104	1435	-3148	4297
D:	1594.28	-1842	11176	11900	4	69	-138	1435	-3148	4297
D:	1595.23	-1842	11176	11900	4	69	-138	1435	-3148	4297
D:	1596.24	-1673	11274	11598	4	69	-138	1435	-3148	4297
D:	1597.22	-1673	11274	11598	4	69	-138	1435	-3148	4297
D:	1598.10	-1673	11274	11598	4	98	-149	1435	-3148	4297
D:	1598.98	-1673	11274	11598	85	98	-149	1435	-3148	4297
D:	1599.86	-1869	11217	11765	85	98	-149	1435	-3148	4297
D:	1600.87	-1869	11217	11765	85	98	-149	1435	-3148	4297
D:	1601.89	-1869	11217	11765	85	32	-120	1435	-3148	4297
D:	1602.80	-1869	11217	11765	77	32	-120	1435	-3148	4297
D:	1603.73	-1793	11133	11674	77	32	-120	1435	-3148	4297
D:	1604.65	-1793	11133	11674	77	32	-120	1435	-3148	4297
D:	1605.54	-1793	11133	11674	77	32	-120	1435	-3148	4297
D:	1606.46	-1793	11133	11674	49	-8	-32	1435	-3148	4297
D:	1607.33	-1793	11133	11674	49	-8	-32	1419	-3205	4470
D:	1608.23	-1702	11094	11590	49	-8	-32	1419	-3205	4470
D:	1609.17	-1702	11094	11590	49	-8	-32	1419	-3205	4470
D:	1610.11	-1702	11094	11590	49	82	-99	1419	-3205	4470
D:	1610.99	-1702	11094	11590	93	82	-99	1419	-3205	4470
D:	1611.86	-1873	11177	11789	93	82	-99	1419	-3205	4470
D:	1612.76	-1873	11177	11789	93	82	-99	1419	-3205	4470
D:	1613.65	-1873	11177	11789	93	82	-99	1419	-3205	4470
D:	1614.52	-1873	11177	11789	90	57	-136	1419	-3205	4470
D:	1615.41	-1873	11177	11789	90	57	-136	1419	-3205	4470
D:	1616.35	-1700	11213	11621	90	57	-136	1419	-3205	4470
D:	1617.23	-1700	11213	11621	90	57	-136	1419	-3205	4470
D:	1618.11	-1700	11213	11621	90	-14	-146	1419	-3205	4470
D:	1618.99	-1700	11213	11621	65	-14	-146	1419	-3205	4470
D:	1619.88	-1885	11150	11819	65	-14	-146	1419	-3205	4470
D:	1620.75	-1885	11150	11819	65	-14	-146	1419	-3205	4470
D:	1621.65	-1885	11150	11819	65	-14	-146	1419	-3205	4470
D:	1622.52	-1885	11150	11819	21	137	-149	1419	-3205	4470
D:	1623.41	-1885	11150	11819	21	137	-149	1419	-3205	4470
D:	1624.28	-1605	11091	11628	21	137	-149	1419	-3205	4470
D:	1625.19	-1605	11091	11628	21	137	-149	1419	-3205	4470
D:	1626.10	-1605	11091	11628	21	45	-156	1419	-3205	4470
D:	1626.99	-1605	11091	11628	96	45	-156	1430	-3154	4680
D:	1627.85	-1890	11152	11646	96	45	-156	1430	-3154	4680
D:	1628.75	-1890	11152	11646	96	45	-156	1430	-3154	4680
D:	1629.65	-1890	11152	11646	96	45	-156	1430	-3154	4680
D:	1630.53	-1890	11152	11646	29	93	-134	1430	-3154	4680
D:	1631.41	-1890	11152	11646	29	93	-134	1430	-3154	4680
D:	1632.28	-1769	11162	11751	29	93	-134	1430	-3154	4680
D:	1633.20	-1769	11162	11751	29	93	-134	1430	-3154	4680
D:	1634.16	-1769	11162	11751	-6	190	-54	1430	-3154	4680
D:	1635.17	-1769	11162	11751	-6	190	-54	1430	-3154	4680
D:	1636.11	-1656	11100	11660	-6	190	-54	1430	-3154	4680
D:	1637.01	-1656	11100	11660	-6	190	-54	1430	-3154	4680
D:	1637.90	-1656	11100	11660	-6	74	-19	1430	-3154	4680
D:	1638.78	-1656	11100	11660	135	74	-19	1430	-3154	4680
D:	1639.75	-1847	11235	11787	135	74	-19	1430	-3154	4680
D:	1640.65	-1847	11235	11787	135	74	-19	1430	-3154	4680
D:	1641.53	-1847	11235	11787	135	74	-19	1430	-3154	4680
D:	1642.41	-1847	11235	11787	65	1	-3	1430	-3154	4680
D:	1643.32	-1847	11235	11787	65	1	-3	1430	-3154	4680
D:	1644.22	-1693	11210	11796	65	1	-3	1430	-3154	4680
D:	1645.12	-1693	11210	11796	65	1	-3	1430	-3154	4680
D:	1646.03	-1693	11210	11796	65	56	-75	1430	-3154	4680
D:	1646.91	-1693	11210	11796	6	56	-75	1424	-3181	4480
D:	1647.93	-1773	11178	11762	6	56	-75	1424	-3181	4480
D:	1648.92	-1773	11178	11762	6	56	-75	1424	-3181	4480
D:	1649.82	-1773	11178	11762	6	23	-36	1424	-3181	4480
D:	1650.78	-1773	11178	11762	56	23	-36	1424	-3181	4480
D:	1651.84	-1784	11192	11792	56	23	-36	1424	-3181	4480
D:	1652.77	-1784	11192	11792	56	23	-36	1424	-3181	4480
D:	1653.65	-1784	11192	11792	56	23	-36	1424	-3181	4480
D:	1654.53	-1784	11192	11792	65	65	-2	1424	-3181	4480
D:	1655.41	-1784	11192	11792	65	65	-2	1424	-3181	4480
D:	1656.28	-1844	11154	11654	65	65	-2	1424	-3181	4480
D:	1657.19	-1844	11154	11654	65	65	-2	1424	-3181	4480
D:	1658.10	-1844	11154	11654	-191	43	58	1424	-3181	4480
D:	1658.98	-1844	11154	11654	-39	43	58	1424	-3181	4480
D:	1659.88	-1796	11243	11744	-39	43	58	1424	-3181	4480
D:	1660.75	-1796	11243	11744	-39	43	58	1424	-3181	4480
D:	1661.65	-1796	11243	11744	-39	43	58	1424	-3181	4480
D:	1662.55	-1796	11243	11744	-10	55	-53	1424	-3181	4480
D:	1663.43	-1796	11243	11744	-10	55	-53	1424	-3181	4480
D:	1664.33	-1891	11260	11797	-10	55	-53	1424	-3181	4480
D:	1665.20	-1891	11260	11797	-10	55	-53	1424	-3181	4480
D:	1666.20	-1891	11260	11797	59	51	-104	1424	-3181	4480
D:	1667.14	-1891	11260	11797	59	51	-104	1424	-3181	4653
D:	1668.03	-1736	11161	11774	59	51	-104	1424	-3181	4653
D:	1668.91	-1736	11161	11774	59	51	-104	1424	-3181	4653
D:	1669.84	-1736	11161	11774	59	18	-50	1424	-3181	4653
D:	1670.75	-1736	11161	11774	-32	18	-50	1422	-3160	4653
D:	1671.65	-1736	11208	11973	-32	18	-50	1422	-3160	4653
D:	1672.53	-1778	11208	11973	-32	18	-50	1422	-3160	4653
D:	1673.41	-1778	11208	11973	-32	18	-50	1422	-3160	4653
D:	1674.27	-1778	11208	11973	48	92	-21	1422	-3160	4653
D:	1675.21	-1778	11208	11973	48	92	-21	1422	-3160	4653
D:	1676.08	-1784	11129	11628	48	92	-21	1422	-3160	4653
D:	1676.96	-1784	11129	11628	48	92	-21	1422	-3160	4653
D:	1677.83	-1784	11129	11628	48	155	-72	1422	-3160	4653
D:	1678.75	-1784	11129	11628	-14	155	-72	1422	-3160	4653
D:	1679.68	-1697	11185	11907	-14	155	-72	1422	-3160	4653
D:	1680.68	-1697	11185	11907	-14	155	-72	1422	-3160	4653
D:	1681.58	-1697	11185	11907	-14	155	-72	1422	-3160	4653
D:	1682.48	-1697	11185	11907	-14	122	-46	1422	-3160	4653
D:	1683.40	-1697	11185	11907	-14	122	-46	1422	-3160	4653
D:	1684.31	-1733	11142	11766	-14	122	-46	1422	-3160	4653
D:	1685.21	-1733	11142	11766	-14	122	-46	1422	-3160	4653
D:	1686.12	-1733	11142	11766	242	83	-48	1422	-3160	4653
D:	1687.14	-1733	11142	11766	43	83	-48	1422	-3160	4653
D:	1688.17	-1680	11122	11815	43	83	-48	1422	-3160	4653
D:	1689.12	-1680	11122	11815	43	83	-48	1422	-3160	4653
D:	1690.03	-1680	11122	11815	43	64	-12	1422	-3160	4653
D:	1690.92	-1680	11122	11815	-23	64	-12	1422	-3176	4464
D:	1691.81	-1920	11328	12018	-23	64	-12	1422	-3176	4464
D:	1692.77	-1920	11328	12018	-23	64	-12	1422	-3176	4464
D:	1693.71	-1920	11328	12018	-23	64	-12	1422	-3176	4464
D:	1694.65	-1920	11328	12018	-45	177	-68	1422	-3176	4464
D:	1695.54	-1920	11328	12018	-45	177	-68	1422	-3176	4464
D:	1696.45	-1731	11142	11771	-45	177	-68	1422	-3176	4464
D:	1697.33	-1731	11142	11771	-45	177	-68	1422	-3176	4464
D:	1698.21	-1731	11142	11771	80	157	-70	1422	-3176	4464
D:	1699.10	-1731	11142	11771	80	157	-70	1422	-3176	4464
D:	1699.99	-1761	11154	11663	80	157	-70	1422	-3176	4464
D:	1700.86	-1761	11154	11663	80	157	-70	1422	-3176	4464
D:	1701.84	-1761	11154	11663	80	117	-105	1422	-3176	4464
D:	1702.82	-1761	11154	11663	79	117	-105	1422	-3176	4464
D:	1703.76	-1765	11114	11845	79	117	-105	1422	-3176	4464
D:	1704.65	-1765	11114	11845	79	117	-105	1422	-3176	4464
D:	1705.53	-1765	11114	11845	79	117	-105	1422	-3176	4464
D:	1706.40	-1765	11114	11845	86	42	-122	1422	-3176	4464
D:	1707.27	-1765	11114	11845	86	42	-122	1422	-3176	4464
D:	1708.19	-1627	11156	11606	86	42	-122	1422	-3176	4464
D:	1709.10	-1627	11156	11606	86	42	-122	1422	-3176	4464
D:	1709.99	-1627	11156	11606	86	31	-55	1422	-3176	4464
D:	1710.85	-1627	11156	11606	-241	31	-55	1430	-3180	4496
D:	1711.75	-1761	11164	11638	-241	31	-55	1430	-3180	4496
D:	1712.65	-1761	11164	11638	-241	31	-55	1430	-3180	4496
D:	1713.52	-1761	11164	11638	-241	31	-55	1430	-3180	4496
D:	1714.40	-1761	11164	11638	-88	150	-103	1430	-3180	4496
D:	1715.28	-1761	11164	11638	-88	150	-103	1430	-3180	4496
D:	1716.20	-1669	11241	11733	-88	150	-103	1430	-3180	4496
D:	1717.10	-1669	11241	11733	-88	150	-103	1430	-3180	4496
D:	1718.00	-1669	11241	11733	-88	131	-83	1430	-3180	4496
D:	1718.91	-1669	11241	11733	-23	131	-83	1430	-3180	4496
D:	1719.81	-1667	11137	11492	-23	131	-83	1430	-3180	4496
D:	1720.75	-1667	11137	11492	-23	131	-83	1430	-3180	4496
D:	1721.65	-1667	11137	11492	-23	131	-83	1430	-3180	4496
D:	1722.53	-1667	11137	11492	36	115	-81	1430	-3180	4496
D:	1723.41	-1667	11137	11492	36	115	-81	1430	-3180	4496
D:	1724.28	-1830	11083	11925	36	115	-81	1430	-3180	4496
D:	1725.21	-1830	11083	11925	36	115	-81	1430	-3180	4496
D:	1726.12	-1830	11083	11925	-220	134	-54	1430	-3180	4496
D:	1727.00	-1830	11083	11925	-8	134	-54	1430	-3180	4496
D:	1727.99	-1758	11082	11620	-8	134	-54	1430	-3180	4496
D:	1728.95	-1758	11082	11620	-8	134	-54	1430	-3180	4496
D:	1729.84	-1758	11082	11620	-8	241	-9	1430	-3180	4496
D:	1730.77	-1758	11082	11620	-57	241	-9	1441	-3190	4426
D:	1731.66	-1752	11144	11735	-57	241	-9	1441	-3190	4426
D:	1732.54	-1752	11144	11735	-57	241	-9	1441	-3190	4426
D:	1733.44	-1752	11144	11735	-57	241	-9	1441	-3190	4426
D:	1734.72	-1752	11144	11735	75	71	-41	1441	-3190	4426
D:	1735.81	-1766	11208	11811	75	71	-41	1441	-3190	4426
D:	1736.76	-1766	11208	11811	75	71	-41	1441	-3190	4426
D:	1737.65	-1766	11208	11811	75	71	-41	1441	-3190	4426
D:	1738.54	-1766	11208	11811	60	1	55	1441	-3190	4426
D:	1739.40	-1766	11208	11811	60	1	55	1441	-3190	4426
D:	1740.28	-1858	11171	11266	60	1	55	1441	-3190	4426
D:	1741.19	-1858	11171	11266	60	1	55	1441	-3190	4426
D:	1742.10	-1858	11171	11266	60	129	-26	1441	-3190	4426
D:	1742.98	-1858	11171	11266	20	129	-26	1441	-3190	4426
D:	1743.85	-1795	11211	11811	20	129	-26	1441	-3190	4426
D:	1744.75	-1795	11211	11811	20	129	-26	1441	-3190	4426
D:	1745.65	-1795	11211	11811	20	129	-26	1441	-3190	4426
D:	1746.53	-1795	11211	11811	-30	144	-119	1441	-3190	4426
D:	1747.41	-1795	11211	11811	-30	144	-119	1441	-3190	4426
D:	1748.30	-1780	11141	11493	-30	144	-119	1441	-3190	4426
D:	1749.20	-1780	11141	11493	-30	144	-119	1441	-3190	4426
D:	1750.13	-1780	11141	11493	226	101	-79	1441	-3190	4426
D:	1751.02	-1780	11141	11493	31	101	-79	1428	-3168	4450
D:	1751.92	-1807	11450	11799	31	101	-79	1428	-3168	4450
D:	1752.81	-1807	11450	11799	31	101	-79	1428	-3168	4450
D:	1753.75	-1807	11450	11799	31	67	-57	1428	-3168	4450
D:	1754.65	-1807	11450	11799	-96	67	-57	1428	-3168	4450
D:	1755.53	-1807	11450	11799	-96	67	-57	1428	-3168	4450
D:	1756.40	-1790	11216	11781	-96	67	-57	1428	-3168	4450
D:	1757.27	-1790	11216	11781	-96	67	-57	1428	-3168	4450
D:	1758.20	-1790	11216	11781	-65	133	-79	1428	-3168	4450
D:	1759.08	-1790	11216	11781	-65	133	-79	1428	-3168	4450
D:	1759.96	-1759	11120	11909	-65	133	-79	1428	-3168	4450
D:	1760.83	-1759	11120	11909	-65	133	-79	1428	-3168	4450
D:	1761.75	-1759	11120	11909	-65	13	-20	1428	-3168	4450
D:	1762.65	-1759	11120	11909	14	13	-20	1428	-3168	4450
D:	1763.53	-1759	11120	11909	14	13	-20	1428	-3168	4450
D:	1764.41	-1834	11304	11745	14	13	-20	1428	-3168	4450
D:	1765.30	-1834	11304	11745	14	13	-20	1428	-3168	4450
D:	1766.21	-1834	11304	11745	65	112	-41	1428	-3168	4450
D:	1767.12	-1834	11304	11745	65	112	-41	1428	-3168	4450
D:	1768.08	-1764	11126	11474	65	112	-41	1428	-3168	4450
D:	1768.98	-1764	11126	11474	65	112	-41	1428	-3168	4450
D:	1769.96	-1764	11126	11474	65	74	-19	1428	-3168	4450
D:	1770.93	-1764	11126	11474	24	74	-19	1430	-3187	4517
D:	1771.82	-1766	11192	11730	24	74	-19	1430	-3187	4517
D:	1772.77	-1766	11192	11730	24	74	-19	1430	-3187	4517
D:	1773.73	-1766	11192	11730	24	104	19	1430	-3187	4517
D:	1774.66	-1766	11192	11730	34	104	19	1430	-3187	4517
D:	1775.53	-1766	11192	11730	34	104	19	1430	-3187	4517
D:	1776.42	-1763	11119	11934	34	104	19	1430	-3187	4517
D:	1777.29	-1763	11119	11934	34	104	19	1430	-3187	4517
D:	1778.21	-1763	11119	11934	-46	185	-101	1430	-3187	4517
D:	1779.11	-1763	11119	11934	-46	185	-101	1430	-3187	4517
D:	1780.03	-1618	11124	11288	-46	185	-101	1430	-3187	4517
D:	1780.94	-1618	11124	11288	-46	185	-101	1430	-3187	4517
D:	1781.83	-1618	11124	11288	-46	83	-4	1430	-3187	4517
D:	1782.75	-1618	11124	11288	-111	83	-4	1430	-3187	4517
D:	1783.65	-1618	11204	11902	-111	83	-4	1430	-3187	4517
D:	1784.54	-1727	11204	11902	-111	83	-4	1430	-3187	4517
D:	1785.44	-1727	11204	11902	-111	83	-4	1430	-3187	4517
D:	1786.33	-1727	11204	11902	-35	94	-79	1430	-3187	4517
D:	1787.19	-1727	11204	11902	-35	94	-79	1430	-3187	4517
D:	1788.10	-1860	11161	11736	-35	94	-79	1430	-3187	4517
D:	1788.99	-1860	11161	11736	-35	94	-79	1430	-3187	4517
D:	1789.88	-1860	11161	11736	-35	112	-69	1430	-3187	4517
D:	1790.75	-1860	11161	11736	-60	112	-69	1430	-3199	4508
D:	1791.65	-1860	11153	11774	-60	112	-69	1430	-3199	4508
D:	1792.53	-1751	11153	11774	-60	112	-69	1430	-3199	4508
D:	1793.40	-1751	11153	11774	-60	112	-69	1430	-3199	4508
D:	1794.28	-1751	11153	11774	-45	135	-57	1430	-3199	4508
D:	1795.19	-1751	11153	11774	-45	135	-57	1430	-3199	4508
D:	1796.10	-1857	11231	11831	-45	135	-57	1430	-3199	4508
D:	1796.98	-1857	11231	11831	-45	135	-57	1430	-3199	4508
D:	1797.88	-1857	11231	11831	-45	-56	-34	1430	-3199	4508
D:	1798.76	-1857	11231	11831	-6	-56	-34	1430	-3199	4508
D:	1799.65	-1857	11206	11739	-6	-56	-34	1430	-3199	4508
D:	1800.53	-1732	11206	11739	-6	-56	-34	1430	-3199	4508
D:	1801.41	-1732	11206	11739	-6	-56	-34	1430	-3199	4508
D:	1802.29	-1732	11206	11739	-30	77	81	1430	-3199	4508
D:	1803.28	-1732	11206	11739	-30	77	81	1430	-3199	4508
D:	1804.18	-1707	11216	11634	-30	77	81	1430	-3199	4508
D:	1805.10	-1707	11216	11634	-30	77	81	1430	-3199	4508
D:	1805.98	-1707	11216	11634	-30	76	-3	1430	-3199	4508
D:	1806.86	-1707	11216	11634	-36	76	-3	1430	-3199	4508
D:	1807.76	-1738	11070	11603	-36	76	-3	1430	-3199	4508
D:	1808.65	-1738	11070	11603	-36	76	-3	1430	-3199	4508
D:	1809.53	-1738	11070	11603	-36	76	-3	1430	-3199	4508
D:	1810.40	-1738	11070	11603	-53	55	-73	1430	-3199	4508
D:	1811.29	-1738	11070	11603	-53	55	-73	1430	-3175	4490
D:	1812.24	-1733	11153	11632	-53	55	-73	1430	-3175	4490
D:	1813.13	-1733	11153	11632	-53	55	-73	1430	-3175	4490
D:	1814.06	-1733	11153	11632	203	63	10	1430	-3175	4490
D:	1814.95	-1733	11153	11632	4	63	10	1430	-3175	4490
D:	1815.89	-1860	11198	11817	4	63	10	1430	-3175	4490
D:	1816.78	-1860	11198	11817	4	63	10	1430	-3175	4490
D:	1817.77	-1860	11198	11817	4	67	-27	1430	-3175	4490
D:	1818.78	-1860	11198	11817	2	67	-27	1430	-3175	4490
D:	1819.71	-1870	11190	11822	2	67	-27	1430	-3175	4490
D:	1820.65	-1870	11190	11822	2	67	-27	1430	-3175	4490
D:	1821.53	-1870	11190	11822	2	67	-27	1430	-3175	4490
D:	1822.41	-1870	11190	11822	-10	109	-36	1430	-3175	4490
D:	1823.30	-1870	11190	11822	-10	109	-36	1430	-3175	4490
D:	1824.19	-1854	11195	11843	-10	109	-36	1430	-3175	4490
D:	1825.10	-1854	11195	11843	-10	109	-36	1430	-3175	4490
D:	1825.99	-1854	11195	11843	-10	-13	19	1430	-3175	4490
D:	1826.85	-1854	11195	11843	-71	-13	19	1430	-3175	4490
D:	1827.75	-1777	11154	11746	-71	-13	19	1430	-3175	4490
D:	1828.65	-1777	11154	11746	-71	-13	19	1430	-3175	4490
D:	1829.53	-1777	11154	11746	-71	-13	19	1430	-3175	4490
D:	1830.40	-1777	11154	11746	-57	50	-26	1430	-3175	4490
D:	1831.27	-1777	11154	11746	-57	50	-26	1430	-3175	4234
D:	1832.21	-1656	11135	11685	-57	50	-26	1430	-3175	4234
D:	1833.10	-1656	11135	11685	-57	50	-26	1430	-3175	4234
D:	1833.99	-1656	11135	11685	-57	107	-58	1430	-3175	4234
D:	1834.89	-1656	11135	11685	-45	107	-58	1427	-3168	4302
D:	1835.77	-1702	11140	11486	-45	107	-58	1427	-3168	4302
D:	1836.66	-1702	11140	11486	-45	107	-58	1427	-3168	4302
D:	1837.56	-1702	11140	11486	-45	107	-58	1427	-3168	4302
D:	1838.47	-1702	11140	11486	-112	114	-25	1427	-3168	4302
D:	1839.35	-1702	11140	11486	-112	114	-25	1427	-3168	4302
D:	1840.23	-1690	11172	11885	-112	114	-25	1427	-3168	4302
D:	1841.08	-1690	11172	11885	-112	114	-25	1427	-3168	4302
D:	1841.96	-1690	11172	11885	-112	82	-36	1427	-3168	4302
D:	1842.85	-1690	11172	11885	-64	82	-36	1427	-3168	4302
D:	1843.75	-1785	11122	11675	-64	82	-36	1427	-3168	4302
D:	1844.64	-1785	11122	11675	-64	82	-36	1427	-3168	4302
D:	1845.52	-1785	11122	11675	-64	82	-36	1427	-3168	4302
D:	1846.40	-1785	11122	11675	31	13	17	1427	-3168	4302
D:	1847.28	-1785	11122	11675	31	13	17	1427	-3168	4302
D:	1848.20	-1842	11240	11733	31	13	17	1427	-3168	4302
D:	1849.10	-1842	11240	11733	31	13	17	1427	-3168	4302
D:	1849.99	-1842	11240	11733	31	87	81	1427	-3168	4302
D:	1850.89	-1842	11240	11733	6	87	81	1427	-3168	4302
D:	1851.78	-1577	11178	11765	6	87	81	1427	-3168	4302
D:	1852.70	-1577	11178	11765	6	87	81	1427	-3168	4302
D:	1853.58	-1577	11178	11765	6	87	81	1427	-3168	4302
D:	1854.48	-1577	11178	11765	6	-16	-25	1427	-3168	4302
D:	1855.37	-1577	11178	11765	6	-16	-25	1417	-3147	4441
D:	1856.26	-1773	11164	11944	6	-16	-25	1417	-3147	4441
D:	1857.23	-1773	11164	11944	6	-16	-25	1417	-3147	4441
D:	1858.13	-1773	11164	11944	6	55	-50	1417	-3147	4441
D:	1859.03	-1773	11164	11944	38	55	-50	1417	-3147	4441
D:	1859.94	-1800	11226	11725	38	55	-50	1417	-3147	4441
D:	1860.84	-1800	11226	11725	38	55	-50	1417	-3147	4441
D:	1861.83	-1800	11226	11725	38	35	-7	1417	-3147	4441
D:	1862.76	-1800	11226	11725	4	35	-7	1417	-3147	4441
D:	1863.65	-1800	11148	11714	4	35	-7	1417	-3147	4441
D:	1864.53	-1838	11148	11714	4	35	-7	1417	-3147	4441
D:	1865.41	-1838	11148	11714	4	35	-7	1417	-3147	4441
D:	1866.29	-1838	11148	11714	4	70	3	1417	-3147	4441
D:	1867.20	-1838	11148	11714	4	70	3	1417	-3147	4441
D:	1868.13	-1814	11174	11769	4	70	3	1417	-3147	4441
D:	1869.02	-1814	11174	11769	4	70	3	1417	-3147	4441
D:	1870.01	-1814	11174	11769	4	50	9	1417	-3147	4441
D:	1870.93	-1814	11174	11769	-17	50	9	1417	-3147	4441
D:	1871.80	-1691	11217	11694	-17	50	9	1417	-3147	4441
D:	1872.71	-1691	11217	11694	-17	50	9	1417	-3147	4441
D:	1873.56	-1691	11217	11694	-17	50	9	1417	-3147	4441
D:	1874.57	-1691	11217	11694	16	10	-68	1417	-3147	4441
D:	1875.54	-1691	11217	11694	16	10	-68	1436	-3177	4371
D:	1876.43	-1783	11117	11646	16	10	-68	1436	-3177	4371
D:	1877.30	-1783	11117	11646	16	10	-68	1436	-3177	4371
D:	1878.21	-1783	11117	11646	-16	49	16	1436	-3177	4371
D:	1879.11	-1783	11117	11646	-16	49	16	1436	-3177	4371
D:	1879.98	-1830	11278	11664	-16	49	16	1436	-3177	4371
D:	1880.86	-1830	11278	11664	-16	49	16	1436	-3177	4371
D:	1881.75	-1830	11278	11664	-16	51	-37	1436	-3177	4371
D:	1882.72	-1830	11278	11664	-64	51	-37	1436	-3177	4371
D:	1883.66	-1830	11159	11657	-64	51	-37	1436	-3177	4371
D:	1884.55	-1685	11159	11657	-64	51	-37	1436	-3177	4371
D:	1885.45	-1685	11159	11657	-64	51	-37	1436	-3177	4371
D:	1886.39	-1685	11159	11657	-52	1	24	1436	-3177	4371
D:	1887.32	-1685	11159	11657	-52	1	24	1436	-3177	4371
D:	1888.24	-1689	11191	11540	-52	1	24	1436	-3177	4371
D:	1889.10	-1689	11191	11540	-52	1	24	1436	-3177	4371
D:	1890.04	-1689	11191	11540	204	47	46	1436	-3177	4371
D:	1890.93	-1689	11191	11540	39	47	46	1436	-3177	4371
D:	1891.81	-1782	11152	11758	39	47	46	1436	-3177	4371
D:	1892.76	-1782	11152	11758	39	47	46	1436	-3177	4371
D:	1893.65	-1782	11152	11758	39	47	46	1436	-3177	4371
D:	1894.53	-1782	11152	11758	-83	86	93	1436	-3177	4371
D:	1895.40	-1782	11152	11758	-83	86	93	1431	-3170	4471
D:	1896.28	-1851	11159	11327	-83	86	93	1431	-3170	4471
D:	1897.23	-1851	11159	11327	-83	86	93	1431	-3170	4471
D:	1898.12	-1851	11159	11327	-83	133	65	1431	-3170	4471
D:	1898.99	-1851	11159	11327	-47	133	65	1431	-3170	4471
D:	1899.89	-1806	11149	11754	-47	133	65	1431	-3170	4471
D:	1900.79	-1806	11149	11754	-47	133	65	1431	-3170	4471
D:	1901.77	-1806	11149	11754	-47	124	44	1431	-3170	4471
D:	1902.71	-1806	11149	11754	-22	124	44	1431	-3170	4471
D:	1903.65	-1806	11234	11735	-22	124	44	1431	-3170	4471
D:	1904.54	-1722	11234	11735	-22	124	44	1431	-3170	4471
D:	1905.42	-1722	11234	11735	-22	124	44	1431	-3170	4471
D:	1906.31	-1722	11234	11735	-86	107	28	1431	-3170	4471
D:	1907.20	-1722	11234	11735	-86	107	28	1431	-3170	4471
D:	1908.10	-1832	11164	11544	-86	107	28	1431	-3170	4471
D:	1908.98	-1832	11164	11544	-86	107	28	1431	-3170	4471
D:	1909.85	-1832	11164	11544	-86	252	54	1431	-3170	4471
D:	1910.75	-1832	11164	11544	-17	252	54	1431	-3170	4471
D:	1911.64	-1832	11224	11775	-17	252	54	1431	-3170	4471
D:	1912.53	-1784	11224	11775	-17	252	54	1431	-3170	4471
D:	1913.40	-1784	11224	11775	-17	252	54	1431	-3170	4471
D:	1914.30	-1784	11224	11775	-35	73	-7	1431	-3170	4471
D:	1915.20	-1784	11224	11775	-35	73	-7	1435	-3171	4493
D:	1916.10	-1773	11131	11611	-35	73	-7	1435	-3171	4493
D:	1916.98	-1773	11131	11611	-35	73	-7	1435	-3171	4493
D:	1917.90	-1773	11131	11611	-35	61	36	1435	-3171	4493
D:	1918.78	-1773	11131	11611	-21	61	36	1435	-3171	4493
D:	1919.71	-1699	11260	11548	-21	61	36	1435	-3171	4493
D:	1920.58	-1699	11260	11548	-21	61	36	1435	-3171	4493
D:	1921.44	-1699	11260	11548	-21	61	36	1435	-3171	4493
D:	1922.31	-1699	11260	11548	55	56	15	1435	-3171	4493
D:	1923.20	-1699	11260	11548	55	56	15	1435	-3171	4493
D:	1924.10	-1828	11213	11681	55	56	15	1435	-3171	4493
D:	1924.98	-1828	11213	11681	55	56	15	1435	-3171	4493
D:	1925.85	-1828	11213	11681	55	37	9	1435	-3171	4493
D:	1926.75	-1828	11213	11681	-9	37	9	1435	-3171	4493
D:	1927.64	-1828	11152	11633	-9	37	9	1435	-3171	4493
