Syntax version=4
Wed May 02 08:30:03 2018
Starting process (2533211 clocks per sec)

LogRawData=false
VarHeader=1
D:		imu_acc_x	imu_acc_y	imu_acc_z	imu_gyro_x	imu_gyro_y	imu_gyro_z	imu_mag_x	imu_mag_y	imu_mag_z	imu_status	imu_temp
D:	time(ms)	(0x20000236,3)	(0x20000238,3)	(0x2000023a,3)	(0x2000022a,3)	(0x2000022c,3)	(0x2000022e,3)	(0x20000230,3)	(0x20000232,3)	(0x20000234,3)	(0x20000120,1)	(0x2000023c,3)
D:	0.07	-1906	-473	-16141	-31	69	-55	-1287	-171	-3288	3	42
D:	1.96	-1996	-362	-16297	-31	69	-55	-1287	-171	-3288	0	42
D:	3.60	-1996	-362	-16297	-113	15	-42	-1287	-171	-3288	1	42
D:	5.18	-1766	-323	-16322	-113	15	-42	-1271	-147	-3116	0	42
D:	6.84	-1766	-323	-16322	-113	15	-42	-1271	-147	-3116	2	42
D:	8.44	-1766	-323	-16322	-141	13	-23	-1271	-147	-3116	3	42
D:	10.03	-1749	-80	-16220	-141	13	-23	-1271	-147	-3116	0	42
D:	11.63	-1749	-80	-16220	-167	58	56	-1271	-147	-3116	1	42
D:	13.28	-1622	-501	-16439	-167	58	56	-1271	-147	-3116	0	42
D:	14.84	-1622	-501	-16439	-167	58	56	-1271	-147	-3116	2	42
D:	16.44	-1622	-501	-16439	-173	0	-28	-1271	-147	-3116	3	42
D:	18.00	-1598	-273	-16061	-173	0	-28	-1271	-147	-3116	0	42
D:	19.57	-1598	-273	-16061	-151	37	-10	-1271	-147	-3116	1	42
D:	21.24	-1381	-443	-16246	-151	37	-10	-1271	-147	-3116	0	42
D:	23.13	-1381	-443	-16246	-151	255	-46	-1271	-147	-3116	1	41
D:	24.75	-1381	-443	-16246	-122	255	-46	-1280	-159	-3333	3	41
D:	26.32	-1421	-513	-16545	-122	255	-46	-1280	-159	-3333	2	41
D:	27.88	-1421	-513	-16545	-71	53	-68	-1280	-159	-3333	1	41
D:	29.54	-1645	-457	-16280	-71	53	-68	-1280	-159	-3333	0	41
D:	31.18	-1645	-457	-16280	-71	102	-57	-1280	-159	-3333	1	41
D:	32.74	-1645	-457	-16280	-49	102	-57	-1280	-159	-3333	3	41
D:	34.32	-1757	-391	-16845	-49	102	-57	-1280	-159	-3333	2	41
D:	35.91	-1757	-391	-16845	-108	-43	-100	-1280	-159	-3333	1	41
D:	37.63	-1854	-303	-16183	-108	-43	-100	-1280	-159	-3333	0	41
D:	39.20	-1854	-303	-16183	-108	-91	-158	-1280	-159	-3333	1	41
D:	40.83	-1854	-303	-16183	-97	-91	-158	-1280	-159	-3333	3	41
D:	42.36	-1874	-294	-16481	-97	-91	-158	-1280	-159	-3333	2	41
D:	44.05	-1874	-294	-16481	50	-55	-10	-1272	-157	-3516	1	41
D:	45.62	-1944	-238	-16367	50	-55	-10	-1272	-157	-3516	0	42
D:	47.21	-1944	-238	-16367	50	19	-35	-1272	-157	-3516	1	42
D:	48.84	-1944	-238	-16367	77	19	-35	-1272	-157	-3516	3	42
D:	50.44	-1723	-314	-16292	77	19	-35	-1272	-157	-3516	2	42
D:	52.00	-1723	-314	-16292	-8	60	-79	-1272	-157	-3516	1	42
D:	53.62	-1623	-492	-16297	-8	60	-79	-1272	-157	-3516	0	42
D:	55.20	-1623	-492	-16297	-8	101	-44	-1272	-157	-3516	1	42
D:	56.75	-1623	-492	-16297	69	101	-44	-1272	-157	-3516	3	42
D:	58.27	-1750	-577	-15979	69	101	-44	-1272	-157	-3516	2	42
D:	59.86	-1750	-577	-15979	56	-20	-35	-1272	-157	-3516	1	42
D:	61.45	-1459	-720	-16434	56	-20	-35	-1272	-157	-3516	0	42
D:	62.99	-1459	-720	-16434	56	9	-75	-1272	-157	-3516	2	42
D:	64.62	-1459	-720	-16434	-9	9	-75	-1283	-166	-3341	3	42
D:	66.28	-1644	-696	-16426	-9	9	-75	-1283	-166	-3341	2	41
D:	67.86	-1644	-696	-16426	-287	6	-85	-1283	-166	-3341	1	41
D:	69.44	-1656	-464	-16239	-287	6	-85	-1283	-166	-3341	0	41
D:	71.02	-1656	-464	-16239	-287	10	-157	-1283	-166	-3341	2	41
D:	72.65	-1656	-464	-16239	-182	10	-157	-1283	-166	-3341	3	41
D:	74.29	-1806	-503	-16197	-182	10	-157	-1283	-166	-3341	2	41
D:	75.86	-1806	-503	-16197	-166	-30	-57	-1283	-166	-3341	1	41
D:	77.44	-1902	-237	-16363	-166	-30	-57	-1283	-166	-3341	0	41
D:	79.00	-1902	-237	-16363	-166	-32	-99	-1283	-166	-3341	2	41
D:	80.63	-1902	-237	-16363	-159	-32	-99	-1283	-166	-3341	3	41
D:	82.21	-1917	-183	-16470	-159	-32	-99	-1283	-166	-3341	2	41
D:	83.83	-1917	-183	-16470	-126	40	2	-1283	-166	-3341	1	41
D:	85.37	-1925	-311	-16559	-126	40	2	-1287	-155	-3436	0	41
D:	86.93	-1925	-311	-16559	-126	40	2	-1287	-155	-3436	2	41
D:	88.54	-1925	-311	-16559	-46	90	-80	-1287	-155	-3436	3	41
D:	90.16	-1849	-135	-16451	-46	90	-80	-1287	-155	-3436	2	41
D:	91.75	-1849	-135	-16451	-29	108	-68	-1287	-155	-3436	1	41
D:	93.30	-1792	-307	-16863	-29	108	-68	-1287	-155	-3436	0	41
D:	95.14	-1792	-307	-16863	-29	43	-100	-1287	-155	-3436	1	41
D:	96.72	-1792	-307	-16863	216	43	-100	-1287	-155	-3436	3	41
D:	98.29	-1654	-313	-16177	216	43	-100	-1287	-155	-3436	2	41
D:	99.81	-1654	-313	-16177	-57	129	-109	-1287	-155	-3436	1	41
D:	101.37	-1480	-416	-16642	-57	129	-109	-1287	-155	-3436	0	41
D:	103.00	-1480	-416	-16642	-57	122	-168	-1287	-155	-3436	2	41
D:	104.60	-1480	-416	-16642	-4	122	-168	-1282	-157	-3238	3	41
D:	106.29	-1485	-330	-16250	-4	122	-168	-1282	-157	-3238	2	41
D:	107.86	-1485	-330	-16250	53	93	-77	-1282	-157	-3238	1	41
D:	109.53	-1705	-387	-16283	53	93	-77	-1282	-157	-3238	0	41
D:	111.11	-1705	-387	-16283	53	136	-85	-1282	-157	-3238	1	41
D:	112.72	-1705	-387	-16283	73	136	-85	-1282	-157	-3238	3	41
D:	114.28	-1723	-422	-16320	73	136	-85	-1282	-157	-3238	2	41
D:	115.86	-1723	-422	-16320	-14	121	-13	-1282	-157	-3238	1	41
D:	117.44	-1757	-376	-16165	-14	121	-13	-1282	-157	-3238	0	41
D:	119.01	-1757	-376	-16165	-14	59	-130	-1282	-157	-3238	2	41
D:	120.63	-1757	-376	-16165	38	59	-130	-1282	-157	-3238	3	41
D:	122.17	-1848	-428	-16427	38	59	-130	-1282	-157	-3238	2	41
D:	123.79	-1848	-428	-16427	2	63	-90	-1282	-157	-3238	1	41
D:	125.38	-1936	-433	-16445	2	63	-90	-1282	-157	-3235	0	41
D:	126.96	-1936	-433	-16445	2	12	-41	-1282	-157	-3235	2	41
D:	128.57	-1936	-433	-16445	-52	12	-41	-1290	-140	-3235	3	41
D:	130.14	-1858	-456	-16287	-52	12	-41	-1290	-140	-3235	2	41
D:	131.74	-1858	-456	-16287	-61	-27	-48	-1290	-140	-3235	1	41
D:	133.34	-1769	-565	-16347	-61	-27	-48	-1290	-140	-3235	0	41
D:	134.94	-1769	-565	-16347	-61	-27	-48	-1290	-140	-3235	2	41
D:	136.54	-1769	-565	-16347	-13	55	-102	-1290	-140	-3235	3	41
D:	138.15	-1736	-490	-16477	-13	55	-102	-1290	-140	-3235	2	41
D:	139.74	-1736	-490	-16477	79	100	-107	-1290	-140	-3235	1	41
D:	141.30	-1627	-434	-16355	79	100	-107	-1290	-140	-3235	0	41
D:	142.96	-1627	-434	-16355	79	53	-100	-1290	-140	-3235	1	41
D:	144.74	-1627	-434	-16355	75	53	-100	-1290	-140	-3235	3	41
D:	146.32	-1603	-317	-16274	75	53	-100	-1290	-140	-3235	2	41
D:	147.86	-1603	-317	-16274	105	85	-80	-1290	-140	-3235	1	41
D:	149.44	-1576	-363	-16157	105	85	-80	-1301	-175	-3283	0	41
D:	151.01	-1576	-363	-16157	105	94	-36	-1301	-175	-3283	2	41
D:	152.60	-1576	-363	-16157	154	94	-36	-1301	-175	-3283	3	41
D:	154.16	-1637	-193	-16526	154	94	-36	-1301	-175	-3283	2	41
D:	155.76	-1637	-193	-16526	164	95	-114	-1301	-175	-3283	1	41
D:	157.35	-1664	-164	-16281	164	95	-114	-1301	-175	-3283	0	41
D:	158.91	-1664	-164	-16281	164	95	-114	-1301	-175	-3283	2	41
D:	160.54	-1664	-164	-16281	93	27	-151	-1301	-175	-3283	3	41
D:	162.10	-1618	-248	-16381	93	27	-151	-1301	-175	-3283	2	41
D:	163.73	-1618	-248	-16381	111	-16	-116	-1301	-175	-3283	1	41
D:	165.29	-1640	-289	-16221	111	-16	-116	-1301	-175	-3283	0	41
D:	166.84	-1640	-289	-16221	111	-16	-116	-1301	-175	-3283	2	41
D:	168.37	-1640	-289	-16221	87	68	-52	-1281	-138	-3204	3	41
D:	169.97	-1652	-346	-16258	87	68	-52	-1281	-138	-3204	0	41
D:	171.54	-1652	-346	-16258	174	32	-69	-1281	-138	-3204	1	41
D:	173.08	-1651	-491	-16449	174	32	-69	-1281	-138	-3204	0	41
D:	174.93	-1651	-491	-16449	174	32	-69	-1281	-138	-3204	2	41
D:	176.54	-1651	-491	-16449	199	144	-113	-1281	-138	-3204	3	41
D:	178.18	-1795	-583	-16169	199	144	-113	-1281	-138	-3204	2	41
D:	179.99	-1795	-583	-16169	200	101	-79	-1281	-138	-3204	1	41
D:	181.60	-1539	-615	-16103	200	101	-79	-1281	-138	-3204	0	41
D:	183.16	-1539	-615	-16103	200	37	-95	-1281	-138	-3204	1	41
D:	184.73	-1539	-615	-16103	247	37	-95	-1281	-138	-3204	3	41
D:	186.46	-1621	-573	-16549	247	37	-95	-1281	-138	-3204	2	41
D:	188.12	-1621	-573	-16549	318	36	-58	-1300	-138	-3318	3	41
D:	189.74	-1689	-500	-16250	318	36	-58	-1300	-138	-3318	0	41
D:	191.25	-1689	-500	-16250	318	31	-140	-1300	-138	-3318	1	41
D:	192.84	-1689	-500	-16250	325	31	-140	-1300	-138	-3318	3	41
D:	194.44	-1387	-513	-16509	325	31	-140	-1300	-138	-3318	2	41
D:	196.01	-1387	-513	-16509	252	18	-73	-1300	-138	-3318	1	41
D:	197.62	-1708	-424	-16398	252	18	-73	-1300	-138	-3318	0	41
D:	199.26	-1708	-424	-16398	252	-32	-87	-1300	-138	-3318	1	41
D:	200.86	-1708	-424	-16398	185	-32	-87	-1300	-138	-3318	3	41
D:	202.44	-1530	-415	-16286	185	-32	-87	-1300	-138	-3318	2	41
D:	203.99	-1530	-415	-16286	193	-25	-57	-1300	-138	-3318	1	41
D:	205.67	-1579	-394	-16343	193	-25	-57	-1300	-138	-3318	0	41
D:	207.25	-1579	-394	-16343	193	24	-47	-1300	-138	-3318	1	41
D:	208.84	-1579	-394	-16343	209	24	-47	-1283	-127	-3526	3	41
D:	210.44	-1789	-465	-16243	209	24	-47	-1283	-127	-3526	2	41
D:	212.02	-1789	-465	-16243	133	54	-113	-1283	-127	-3526	1	41
D:	213.62	-1532	-378	-16786	133	54	-113	-1283	-127	-3526	0	41
D:	215.33	-1532	-378	-16786	133	65	-113	-1283	-127	-3526	1	41
D:	216.95	-1738	-397	-16360	27	65	-113	-1283	-127	-3526	3	41
D:	218.54	-1738	-397	-16360	27	65	-113	-1283	-127	-3526	2	41
D:	220.14	-1738	-397	-16360	18	85	-154	-1283	-127	-3526	3	41
D:	221.74	-1751	-448	-16314	18	85	-154	-1283	-127	-3526	0	41
D:	223.32	-1751	-448	-16314	18	92	-121	-1283	-127	-3526	1	41
D:	224.89	-1751	-445	-16345	72	92	-121	-1283	-127	-3526	3	41
D:	226.56	-1641	-445	-16345	72	92	-121	-1283	-127	-3526	2	41
D:	228.29	-1641	-445	-16345	66	252	-4	-1291	-150	-3320	3	41
D:	229.86	-1717	-357	-16128	66	252	-4	-1291	-150	-3320	0	42
D:	231.61	-1717	-357	-16128	66	58	-27	-1291	-150	-3320	1	42
D:	233.34	-1616	-472	-16555	66	58	-27	-1291	-150	-3320	0	42
D:	234.91	-1616	-472	-16555	66	58	-27	-1291	-150	-3320	2	42
D:	236.46	-1616	-472	-16555	40	56	-69	-1291	-150	-3320	3	42
D:	238.04	-1694	-459	-16221	40	56	-69	-1291	-150	-3320	0	42
D:	239.63	-1694	-459	-16221	3	23	-176	-1291	-150	-3320	1	42
D:	241.27	-1579	-557	-16406	3	23	-176	-1291	-150	-3320	0	42
D:	242.81	-1579	-557	-16406	3	23	-176	-1291	-150	-3320	2	42
D:	244.37	-1579	-557	-16406	91	-10	-90	-1291	-150	-3320	3	42
D:	245.94	-1805	-525	-16321	91	-10	-90	-1291	-150	-3320	0	42
D:	247.61	-1805	-525	-16321	14	-30	-68	-1291	-150	-3320	1	42
D:	249.32	-1827	-551	-16253	14	-30	-68	-1293	-136	-3111	0	42
D:	250.91	-1827	-551	-16253	14	-30	-68	-1293	-136	-3111	2	41
D:	252.54	-1827	-551	-16253	-9	23	-164	-1293	-136	-3111	3	41
D:	254.15	-1596	-486	-16483	-9	23	-164	-1293	-136	-3111	2	41
D:	255.82	-1596	-486	-16483	85	36	-106	-1293	-136	-3111	1	41
D:	257.54	-1747	-460	-16481	85	36	-106	-1293	-136	-3111	0	41
D:	259.11	-1747	-460	-16481	85	65	-101	-1293	-136	-3111	1	41
D:	260.73	-1747	-460	-16481	134	65	-101	-1293	-136	-3111	3	41
D:	262.31	-1708	-543	-16484	134	65	-101	-1293	-136	-3111	2	41
D:	263.86	-1708	-543	-16484	105	24	-98	-1293	-136	-3111	1	41
D:	265.44	-1700	-361	-16590	105	24	-98	-1293	-136	-3111	0	41
D:	266.96	-1700	-361	-16590	105	25	-73	-1293	-136	-3111	2	41
D:	268.58	-1700	-361	-16590	95	25	-73	-1288	-120	-3356	3	41
D:	270.15	-1793	-269	-16303	95	25	-73	-1288	-120	-3356	2	41
D:	271.73	-1793	-269	-16303	14	27	-122	-1288	-120	-3356	1	41
D:	273.48	-1650	-308	-16761	14	27	-122	-1288	-120	-3356	0	41
D:	275.22	-1650	-308	-16761	14	73	-123	-1288	-120	-3356	1	41
D:	276.82	-1650	-308	-16761	-36	73	-123	-1288	-120	-3356	3	41
D:	278.35	-1662	-293	-16382	-36	73	-123	-1288	-120	-3356	2	41
D:	279.95	-1662	-293	-16382	-75	-39	-103	-1288	-120	-3356	1	41
D:	281.54	-1627	-414	-16475	-75	-39	-103	-1288	-120	-3356	0	41
D:	283.16	-1627	-414	-16475	-75	-53	-83	-1288	-120	-3356	1	41
D:	284.72	-1627	-414	-16475	47	-53	-83	-1288	-120	-3356	3	41
D:	286.29	-1608	-485	-16258	47	-53	-83	-1288	-120	-3356	2	41
D:	287.84	-1608	-485	-16258	98	3	-111	-1288	-120	-3356	1	41
D:	289.44	-1551	-537	-16145	98	3	-111	-1288	-120	-3447	0	41
D:	291.02	-1551	-537	-16145	98	19	-134	-1288	-120	-3447	2	41
D:	292.60	-1551	-537	-16145	78	19	-134	-1302	-114	-3447	3	41
D:	294.14	-1620	-624	-16088	78	19	-134	-1302	-114	-3447	2	41
D:	295.74	-1620	-624	-16088	177	118	-129	-1302	-114	-3447	1	41
D:	297.32	-1821	-488	-16164	177	118	-129	-1302	-114	-3447	0	41
D:	299.05	-1821	-488	-16164	177	41	-175	-1302	-114	-3447	1	41
D:	300.72	-1821	-488	-16164	67	41	-175	-1302	-114	-3447	3	41
D:	302.29	-1723	-562	-16052	67	41	-175	-1302	-114	-3447	2	41
D:	303.85	-1723	-562	-16052	204	-27	-148	-1302	-114	-3447	1	41
D:	305.47	-1962	-411	-16281	204	-27	-148	-1302	-114	-3447	0	41
D:	307.25	-1962	-411	-16281	204	56	-72	-1302	-114	-3447	1	41
D:	308.84	-1962	-411	-16281	244	56	-72	-1302	-114	-3447	3	41
D:	310.44	-1826	-437	-16337	244	56	-72	-1302	-114	-3447	2	41
D:	312.00	-1826	-437	-16337	284	30	-68	-1292	-130	-3284	1	41
D:	313.67	-1724	-517	-16367	284	30	-68	-1292	-130	-3284	0	41
D:	315.26	-1724	-517	-16367	284	41	-63	-1292	-130	-3284	1	41
D:	316.86	-1724	-517	-16367	157	41	-63	-1292	-130	-3284	3	41
D:	318.45	-1788	-465	-16509	157	41	-63	-1292	-130	-3284	2	41
D:	320.02	-1788	-465	-16509	212	1	-100	-1292	-130	-3284	1	41
D:	321.62	-1713	-514	-16271	212	1	-100	-1292	-130	-3284	0	41
D:	323.17	-1713	-514	-16271	212	45	-49	-1292	-130	-3284	1	41
D:	324.77	-1713	-514	-16271	270	45	-49	-1292	-130	-3284	3	41
D:	326.32	-1451	-501	-16133	270	45	-49	-1292	-130	-3284	2	41
D:	327.89	-1451	-501	-16133	290	48	-30	-1292	-130	-3284	1	41
D:	329.47	-1677	-405	-16362	290	48	-30	-1292	-130	-3284	0	41
D:	331.24	-1677	-405	-16362	290	-24	-125	-1292	-130	-3284	1	41
D:	332.82	-1677	-405	-16362	93	-24	-125	-1290	-129	-3379	3	41
D:	334.37	-1538	-467	-16177	93	-24	-125	-1290	-129	-3379	2	41
D:	335.94	-1538	-467	-16177	177	49	-148	-1290	-129	-3379	1	41
D:	337.54	-1702	-559	-16155	177	49	-148	-1290	-129	-3379	0	41
D:	339.23	-1702	-559	-16155	177	96	-72	-1290	-129	-3379	1	41
D:	340.92	-1707	-477	-16361	79	96	-72	-1290	-129	-3379	3	41
D:	342.54	-1707	-477	-16361	79	96	-72	-1290	-129	-3379	2	41
D:	344.10	-1707	-477	-16361	136	53	-153	-1290	-129	-3379	3	41
D:	345.72	-1956	-506	-16359	136	53	-153	-1290	-129	-3379	0	41
D:	347.26	-1956	-506	-16359	136	37	-79	-1290	-129	-3379	1	41
D:	348.86	-1956	-506	-16359	-87	37	-79	-1290	-129	-3379	3	41
D:	350.44	-1731	-425	-16193	-87	37	-79	-1290	-129	-3379	2	41
D:	352.03	-1731	-425	-16193	-6	-37	-57	-1291	-129	-3242	1	41
D:	353.63	-1808	-409	-16393	-6	-37	-57	-1291	-129	-3242	0	41
D:	355.26	-1808	-409	-16393	-6	-37	-101	-1291	-129	-3242	1	41
D:	356.86	-1808	-409	-16393	-46	-37	-101	-1291	-129	-3242	3	41
D:	358.44	-1803	-641	-16615	-46	-37	-101	-1291	-129	-3242	2	41
D:	360.00	-1803	-641	-16615	-34	62	-107	-1291	-129	-3242	1	41
D:	361.57	-1889	-346	-16321	-34	62	-107	-1291	-129	-3242	0	41
D:	363.15	-1889	-346	-16321	-34	5	-43	-1291	-129	-3242	1	41
D:	364.75	-1889	-346	-16321	66	5	-43	-1291	-129	-3242	3	41
D:	366.31	-1557	-557	-16363	66	5	-43	-1291	-129	-3242	2	41
D:	367.89	-1557	-557	-16363	0	-64	-144	-1291	-129	-3242	1	41
D:	369.46	-1688	-533	-16143	0	-64	-144	-1291	-129	-3242	0	41
D:	370.99	-1688	-533	-16143	0	-64	-144	-1291	-129	-3242	2	41
D:	372.55	-1688	-533	-16143	80	64	-95	-1281	-122	-3203	3	41
D:	374.16	-1658	-458	-16155	80	64	-95	-1281	-122	-3203	2	41
D:	375.71	-1658	-458	-16155	-15	74	-99	-1281	-122	-3203	1	41
D:	377.24	-1645	-487	-16605	-15	74	-99	-1281	-122	-3203	0	41
D:	378.81	-1645	-487	-16605	-15	74	-99	-1281	-122	-3203	2	41
D:	380.44	-1645	-487	-16605	106	12	-35	-1281	-122	-3203	3	41
D:	382.01	-1703	-533	-16307	106	12	-35	-1281	-122	-3203	0	41
D:	383.62	-1703	-533	-16307	173	57	-17	-1281	-122	-3203	1	41
D:	385.21	-1566	-488	-16440	173	57	-17	-1281	-122	-3203	0	41
D:	386.85	-1566	-488	-16440	173	57	-17	-1281	-122	-3203	2	41
D:	388.44	-1566	-488	-16440	76	26	1	-1281	-122	-3203	3	41
D:	389.99	-1804	-431	-16519	76	26	1	-1281	-122	-3203	0	41
D:	391.58	-1804	-431	-16519	71	20	-11	-1281	-122	-3203	1	41
D:	393.17	-1883	-498	-16099	71	20	-11	-1301	-106	-3287	0	41
D:	394.72	-1883	-498	-16099	71	20	-11	-1301	-106	-3287	2	41
D:	396.29	-1883	-498	-16099	8	2	-33	-1301	-106	-3287	3	41
D:	397.81	-1692	-501	-16562	8	2	-33	-1301	-106	-3287	0	41
D:	399.44	-1692	-501	-16562	12	-47	-9	-1301	-106	-3287	1	41
D:	400.99	-1773	-521	-16333	12	-47	-9	-1301	-106	-3287	3	41
D:	402.63	-1773	-521	-16333	12	-47	-9	-1301	-106	-3287	2	41
D:	404.29	-1773	-521	-16333	-10	-40	-157	-1301	-106	-3287	3	41
D:	405.88	-1509	-526	-16508	-10	-40	-157	-1301	-106	-3287	0	41
D:	407.44	-1509	-526	-16508	98	-5	-151	-1301	-106	-3287	1	41
D:	409.01	-1689	-283	-16464	98	-5	-151	-1301	-106	-3287	3	41
D:	410.62	-1689	-283	-16464	98	-5	-151	-1301	-106	-3287	2	41
D:	412.19	-1689	-283	-16464	82	53	-111	-1288	-132	-3305	3	41
D:	413.81	-1745	-512	-16293	82	53	-111	-1288	-132	-3305	0	41
D:	415.36	-1745	-512	-16293	-174	23	26	-1288	-132	-3305	1	41
D:	416.95	-1688	-653	-16307	-30	23	26	-1288	-132	-3305	3	41
D:	418.54	-1688	-653	-16307	-30	23	26	-1288	-132	-3305	2	41
D:	420.14	-1688	-653	-16307	67	81	-108	-1288	-132	-3305	3	41
D:	421.74	-1766	-404	-16136	67	81	-108	-1288	-132	-3305	0	41
D:	423.52	-1766	-404	-16136	57	75	-115	-1288	-132	-3305	1	41
D:	425.24	-1437	-532	-16612	57	75	-115	-1288	-132	-3305	0	41
D:	426.94	-1437	-532	-16612	57	75	-115	-1288	-132	-3305	2	41
D:	428.54	-1437	-532	-16612	43	22	-126	-1288	-132	-3305	3	41
D:	430.15	-1689	-585	-16247	43	22	-126	-1288	-132	-3305	2	41
D:	431.81	-1689	-585	-16247	5	-42	-81	-1288	-132	-3305	1	41
D:	433.44	-1698	-518	-16111	5	-42	-81	-1299	-134	-3306	0	41
D:	435.06	-1698	-518	-16111	5	-48	-128	-1299	-134	-3306	2	41
D:	436.63	-1698	-518	-16111	-58	-48	-128	-1299	-134	-3306	3	41
D:	438.21	-1803	-515	-16257	-58	-48	-128	-1299	-134	-3306	2	41
D:	439.85	-1803	-515	-16257	-137	1	-78	-1299	-134	-3306	1	41
D:	441.50	-1852	-281	-16341	-137	1	-78	-1299	-134	-3306	0	41
D:	443.04	-1852	-281	-16341	-137	58	-121	-1299	-134	-3306	2	41
D:	444.59	-1852	-281	-16341	-158	58	-121	-1299	-134	-3306	3	41
D:	446.36	-1626	-637	-16193	-158	58	-121	-1299	-134	-3306	2	41
D:	448.00	-1626	-637	-16193	-228	-80	-85	-1299	-134	-3306	1	41
D:	449.63	-1549	-393	-16251	-228	-80	-85	-1299	-134	-3306	0	41
D:	451.28	-1549	-393	-16251	-228	47	-9	-1299	-134	-3306	1	41
D:	452.88	-1549	-393	-16251	-280	47	-9	-1299	-134	-3306	3	41
D:	454.46	-1727	-322	-16269	-280	47	-9	-1299	-134	-3306	2	41
D:	456.04	-1727	-322	-16269	-90	11	2	-1288	-124	-3224	1	41
D:	457.62	-1549	-453	-16334	-90	11	2	-1288	-124	-3224	0	41
D:	459.19	-1549	-453	-16334	-90	36	-109	-1288	-124	-3224	1	41
D:	460.84	-1549	-453	-16334	-134	36	-109	-1288	-124	-3224	3	41
D:	462.44	-1734	-386	-16354	-134	36	-109	-1288	-124	-3224	2	41
D:	464.01	-1734	-386	-16354	-89	6	-112	-1288	-124	-3224	1	41
D:	465.63	-1607	-449	-16313	-89	6	-112	-1288	-124	-3224	0	41
D:	467.26	-1607	-449	-16313	-89	-78	-60	-1288	-124	-3224	1	41
D:	468.81	-1607	-449	-16313	-66	-78	-60	-1288	-124	-3224	3	41
D:	470.44	-1702	-498	-16546	-66	-78	-60	-1288	-124	-3224	2	41
D:	472.03	-1702	-498	-16546	-22	19	-137	-1288	-124	-3224	3	41
D:	473.77	-1629	-527	-16221	-22	19	-137	-1288	-124	-3224	0	40
D:	475.32	-1629	-527	-16221	-22	64	-74	-1288	-124	-3224	1	40
D:	476.90	-1629	-492	-16365	-135	64	-74	-1289	-118	-3342	3	40
D:	478.54	-1688	-492	-16365	-135	64	-74	-1289	-118	-3342	2	40
D:	480.14	-1688	-492	-16365	-149	6	-66	-1289	-118	-3342	3	40
D:	481.95	-1945	-549	-16232	-149	6	-66	-1289	-118	-3342	0	40
D:	483.60	-1945	-549	-16232	-101	4	-72	-1289	-118	-3342	1	40
D:	485.22	-1715	-494	-16253	-101	4	-72	-1289	-118	-3342	0	40
D:	486.85	-1715	-494	-16253	-101	4	-72	-1289	-118	-3342	2	40
D:	488.44	-1715	-494	-16253	-86	82	-114	-1289	-118	-3342	3	40
D:	490.04	-1640	-545	-16423	-86	82	-114	-1289	-118	-3342	0	40
D:	491.63	-1640	-545	-16423	-48	118	-71	-1289	-118	-3342	1	40
D:	493.26	-1784	-507	-16125	-48	118	-71	-1289	-118	-3342	0	40
D:	494.82	-1784	-507	-16125	-48	118	-71	-1289	-118	-3342	2	42
D:	496.37	-1784	-507	-16125	-27	81	-59	-1298	-154	-3171	3	42
D:	497.96	-1643	-451	-16257	-27	81	-59	-1298	-154	-3171	0	42
D:	499.54	-1643	-451	-16257	-123	41	-158	-1298	-154	-3171	1	42
D:	501.16	-1774	-510	-16303	-123	41	-158	-1298	-154	-3171	0	42
D:	502.85	-1774	-510	-16303	-123	41	-158	-1298	-154	-3171	2	42
D:	504.44	-1774	-510	-16303	-8	19	-49	-1298	-154	-3171	3	42
D:	506.05	-1756	-492	-16404	-8	19	-49	-1298	-154	-3171	0	42
D:	507.63	-1756	-492	-16404	-126	53	-52	-1298	-154	-3171	1	42
D:	509.35	-1692	-510	-16693	-126	53	-52	-1298	-154	-3171	0	42
D:	510.98	-1692	-510	-16693	-126	53	-52	-1298	-154	-3171	2	42
D:	512.54	-1692	-510	-16693	-104	11	-85	-1298	-154	-3171	3	42
D:	514.27	-1943	-496	-16286	-104	11	-85	-1298	-154	-3171	2	42
D:	515.84	-1943	-496	-16286	-186	103	-31	-1298	-154	-3171	1	42
D:	517.44	-1668	-614	-16204	-186	103	-31	-1291	-124	-3308	0	42
D:	519.01	-1668	-614	-16204	-186	22	-37	-1291	-124	-3308	2	42
D:	520.62	-1668	-614	-16204	-134	22	-37	-1291	-124	-3308	3	42
D:	522.28	-1528	-646	-16565	-134	22	-37	-1291	-124	-3308	2	42
D:	524.05	-1528	-646	-16565	-332	119	-136	-1291	-124	-3308	1	42
D:	525.63	-1813	-522	-16295	-332	119	-136	-1291	-124	-3308	0	42
D:	527.46	-1813	-522	-16295	-424	27	-18	-1291	-124	-3308	1	42
D:	529.04	-1648	-525	-16472	-424	27	-18	-1291	-124	-3308	0	42
D:	530.74	-1648	-525	-16472	-424	27	-18	-1291	-124	-3308	2	42
D:	532.32	-1648	-525	-16472	-338	32	-31	-1291	-124	-3308	3	42
D:	533.91	-1654	-382	-16404	-338	32	-31	-1291	-124	-3308	2	42
D:	535.77	-1654	-382	-16404	-337	61	-44	-1291	-124	-3308	1	42
D:	537.35	-1629	-510	-16417	-337	61	-44	-1283	-126	-3180	0	42
D:	539.06	-1629	-510	-16417	-337	101	-94	-1283	-126	-3180	1	42
D:	540.84	-1629	-510	-16417	-473	101	-94	-1283	-126	-3180	3	42
D:	542.44	-1587	-451	-16648	-473	101	-94	-1283	-126	-3180	2	42
D:	543.99	-1587	-451	-16648	-237	151	-110	-1283	-126	-3180	1	42
D:	545.57	-1858	-494	-16114	-237	151	-110	-1283	-126	-3180	0	42
D:	547.20	-1858	-494	-16114	-237	109	-86	-1283	-126	-3180	1	42
D:	548.92	-1672	-366	-16668	-376	109	-86	-1283	-126	-3180	0	42
D:	550.79	-1672	-366	-16668	-376	109	-86	-1283	-126	-3180	2	42
D:	552.53	-1672	-366	-16668	-200	159	-56	-1283	-126	-3180	3	42
D:	554.24	-1738	-622	-16410	-200	159	-56	-1283	-126	-3180	2	42
D:	555.89	-1738	-622	-16410	-252	24	-53	-1283	-126	-3180	1	42
D:	557.66	-1745	-407	-16313	-252	24	-53	-1287	-148	-3223	0	41
D:	559.27	-1745	-407	-16313	-252	77	-74	-1287	-148	-3223	1	41
D:	560.84	-1745	-407	-16313	-342	77	-74	-1287	-148	-3223	3	41
D:	562.44	-1806	-377	-16520	-342	77	-74	-1287	-148	-3223	2	41
D:	564.01	-1806	-377	-16520	-275	132	-165	-1287	-148	-3223	1	41
D:	565.60	-1793	-237	-16166	-275	132	-165	-1287	-148	-3223	0	41
D:	567.30	-1793	-237	-16166	-275	55	-128	-1287	-148	-3223	1	41
D:	568.94	-1776	-481	-16508	-321	55	-128	-1287	-148	-3223	3	41
D:	570.54	-1776	-481	-16508	-321	55	-128	-1287	-148	-3223	2	41
D:	572.19	-1776	-481	-16508	-314	21	-130	-1287	-148	-3223	3	41
D:	573.84	-1812	-487	-16207	-314	21	-130	-1287	-148	-3223	0	41
D:	575.64	-1812	-487	-16207	-354	53	-152	-1287	-148	-3223	1	41
D:	577.27	-1715	-464	-16190	-354	53	-152	-1292	-157	-3291	0	41
D:	578.84	-1715	-464	-16190	-354	53	-152	-1292	-157	-3291	2	41
D:	580.44	-1715	-464	-16190	-419	40	-140	-1292	-157	-3291	3	41
D:	582.00	-1549	-384	-16536	-419	40	-140	-1292	-157	-3291	0	41
D:	583.56	-1549	-384	-16536	-290	18	-107	-1292	-157	-3291	1	41
D:	585.12	-1686	-415	-16177	-290	18	-107	-1292	-157	-3291	0	41
D:	586.73	-1686	-415	-16177	-290	18	-107	-1292	-157	-3291	2	41
D:	588.29	-1686	-415	-16177	-229	41	-133	-1292	-157	-3291	3	41
D:	590.05	-1750	-478	-16355	-229	41	-133	-1292	-157	-3291	0	41
D:	591.62	-1750	-478	-16355	-156	60	-63	-1292	-157	-3291	1	41
D:	593.21	-1800	-512	-16453	-156	60	-63	-1292	-157	-3291	0	41
D:	594.86	-1800	-512	-16453	-156	60	-63	-1292	-157	-3291	2	41
D:	596.44	-1800	-512	-16453	-126	55	-175	-1292	-124	-3264	3	41
D:	598.00	-1739	-422	-16103	-126	55	-175	-1292	-124	-3264	0	41
D:	599.60	-1739	-422	-16103	31	153	-69	-1292	-124	-3264	1	41
D:	601.17	-1740	-395	-16266	31	153	-69	-1292	-124	-3264	0	41
D:	602.85	-1740	-395	-16266	31	153	-69	-1292	-124	-3264	2	41
D:	604.44	-1740	-395	-16266	49	154	-112	-1292	-124	-3264	3	41
D:	606.01	-1751	-369	-16025	49	154	-112	-1292	-124	-3264	0	41
D:	607.59	-1751	-369	-16025	-37	121	-120	-1292	-124	-3264	1	41
D:	609.18	-1709	-381	-16486	-37	121	-120	-1292	-124	-3264	0	41
D:	610.73	-1709	-381	-16486	-37	121	-120	-1292	-124	-3264	2	41
D:	612.30	-1709	-381	-16486	-65	-13	-49	-1292	-124	-3264	3	41
D:	613.88	-2022	-280	-16511	-65	-13	-49	-1292	-124	-3264	0	41
D:	615.54	-2022	-280	-16511	-28	57	-112	-1292	-124	-3264	1	41
D:	617.17	-1736	-331	-16101	-28	57	-112	-1292	-124	-3264	0	41
D:	618.72	-1736	-331	-16101	-28	57	-112	-1292	-124	-3264	2	41
D:	620.29	-1736	-331	-16101	-45	-22	-143	-1277	-163	-3197	3	41
D:	622.12	-1759	-499	-16410	-45	-22	-143	-1277	-163	-3197	2	41
D:	623.74	-1759	-499	-16410	-162	37	-82	-1277	-163	-3197	1	41
D:	625.32	-1678	-280	-16113	-162	37	-82	-1277	-163	-3197	0	41
D:	626.94	-1678	-280	-16113	-162	37	-82	-1277	-163	-3197	2	41
D:	628.54	-1678	-280	-16113	8	40	-99	-1277	-163	-3197	3	41
D:	630.14	-1695	-400	-16329	8	40	-99	-1277	-163	-3197	2	41
D:	631.74	-1695	-400	-16329	14	147	-16	-1277	-163	-3197	1	41
D:	633.33	-1739	-484	-16628	14	147	-16	-1277	-163	-3197	0	41
D:	634.94	-1739	-484	-16628	14	147	-16	-1277	-163	-3197	2	41
D:	636.55	-1739	-484	-16628	57	69	-118	-1277	-163	-3197	3	41
D:	638.16	-1680	-496	-16141	57	69	-118	-1277	-163	-3197	2	41
D:	639.72	-1680	-496	-16141	7	244	-100	-1277	-163	-3197	1	41
D:	641.29	-1603	-760	-16627	7	244	-100	-1276	-137	-3333	0	41
D:	643.01	-1603	-760	-16627	7	64	-131	-1276	-137	-3333	2	41
D:	644.65	-1603	-760	-16627	16	64	-131	-1276	-137	-3333	3	41
D:	646.31	-1701	-509	-16504	16	64	-131	-1276	-137	-3333	2	41
D:	647.98	-1701	-509	-16504	-29	48	-108	-1276	-137	-3333	1	41
D:	649.63	-1696	-480	-16507	-29	48	-108	-1276	-137	-3333	0	41
D:	651.26	-1696	-480	-16507	-29	80	-43	-1276	-137	-3333	1	41
D:	652.83	-1696	-480	-16507	-124	80	-43	-1276	-137	-3333	3	41
D:	654.44	-1672	-519	-16506	-124	80	-43	-1276	-137	-3333	2	41
D:	656.18	-1672	-519	-16506	-89	-35	-3	-1276	-137	-3333	3	41
D:	657.84	-1702	-474	-16247	-89	-35	-3	-1276	-137	-3333	0	41
D:	659.44	-1702	-474	-16247	-71	-39	-61	-1276	-137	-3333	1	41
D:	660.99	-1409	-535	-16595	-71	-39	-61	-1296	-169	-3319	3	41
D:	662.62	-1409	-535	-16595	-71	-39	-61	-1296	-169	-3319	2	41
D:	664.29	-1409	-535	-16595	-105	21	-41	-1296	-169	-3319	3	41
D:	665.84	-1732	-415	-16383	-105	21	-41	-1296	-169	-3319	0	41
D:	667.44	-1732	-415	-16383	-183	21	-106	-1296	-169	-3319	1	41
D:	669.00	-1808	-592	-16386	-183	21	-106	-1296	-169	-3319	3	41
D:	670.62	-1808	-592	-16386	-183	21	-106	-1296	-169	-3319	2	41
D:	672.30	-1808	-592	-16386	-188	-14	-88	-1296	-169	-3319	3	41
D:	673.86	-1766	-433	-16515	-188	-14	-88	-1296	-169	-3319	0	41
D:	675.44	-1766	-433	-16515	-255	-64	-147	-1296	-169	-3319	1	41
D:	677.04	-1755	-408	-16258	-255	-64	-147	-1296	-169	-3319	3	41
D:	678.62	-1755	-408	-16258	-255	-64	-147	-1296	-169	-3319	2	41
D:	680.28	-1755	-408	-16258	-296	15	-126	-1286	-146	-3380	3	41
D:	682.11	-1971	-405	-16485	-296	15	-126	-1286	-146	-3380	2	42
D:	683.73	-1971	-405	-16485	-220	-11	-86	-1286	-146	-3380	1	42
D:	685.31	-1888	-249	-16118	-220	-11	-86	-1286	-146	-3380	0	42
D:	686.86	-1888	-249	-16118	-220	-11	-86	-1286	-146	-3380	2	42
D:	688.44	-1888	-249	-16118	-215	39	-97	-1286	-146	-3380	3	42
D:	690.03	-1640	-459	-16171	-215	39	-97	-1286	-146	-3380	0	42
D:	691.60	-1640	-459	-16171	-288	-67	-144	-1286	-146	-3380	1	42
D:	693.26	-1600	-493	-16226	-288	-67	-144	-1286	-146	-3380	0	42
D:	694.86	-1600	-493	-16226	-288	-67	-144	-1286	-146	-3380	2	42
D:	696.44	-1600	-493	-16226	-221	9	-94	-1286	-146	-3380	3	42
D:	698.28	-1719	-435	-16270	-221	9	-94	-1286	-146	-3380	2	42
D:	699.83	-1719	-435	-16270	-257	-13	-32	-1286	-146	-3380	1	42
D:	701.44	-1598	-494	-16563	-257	-13	-32	-1286	-158	-3403	0	42
D:	703.28	-1598	-494	-16563	-257	4	-92	-1286	-158	-3403	1	42
D:	704.88	-1598	-494	-16563	-189	4	-92	-1286	-158	-3403	3	42
D:	706.44	-1744	-387	-16339	-189	4	-92	-1286	-158	-3403	2	42
D:	707.99	-1744	-387	-16339	-175	-84	-10	-1286	-158	-3403	1	42
D:	709.66	-1694	-468	-16341	-175	-84	-10	-1286	-158	-3403	0	42
D:	711.44	-1694	-468	-16341	-185	-41	-128	-1286	-158	-3403	1	42
D:	713.04	-1597	-475	-16481	-185	-41	-128	-1286	-158	-3403	0	42
D:	714.74	-1597	-475	-16481	-185	-41	-128	-1286	-158	-3403	2	42
D:	716.34	-1597	-475	-16481	-250	-95	-87	-1286	-158	-3403	3	42
D:	717.92	-1761	-494	-16250	-250	-95	-87	-1286	-158	-3403	0	42
D:	719.68	-1761	-494	-16250	-66	12	-170	-1286	-158	-3403	1	42
D:	721.28	-1874	-405	-16408	-66	12	-170	-1286	-151	-3429	0	42
D:	722.96	-1874	-405	-16408	-66	12	-170	-1286	-151	-3429	2	42
D:	724.54	-1874	-405	-16408	-67	-34	-154	-1286	-151	-3429	3	42
D:	726.16	-1759	-232	-16266	-67	-34	-154	-1286	-151	-3429	2	42
D:	727.74	-1759	-232	-16266	46	41	-18	-1286	-151	-3429	1	42
D:	729.30	-1858	-417	-16383	46	41	-18	-1286	-151	-3429	0	42
D:	730.85	-1858	-417	-16383	46	41	-18	-1286	-151	-3429	2	42
D:	732.44	-1858	-417	-16383	-50	49	-31	-1286	-151	-3429	3	42
D:	734.00	-1739	-380	-16361	-50	49	-31	-1286	-151	-3429	0	42
D:	735.57	-1739	-380	-16361	10	42	-27	-1286	-151	-3429	1	42
D:	737.17	-1773	-351	-16323	10	42	-27	-1286	-151	-3429	0	42
D:	738.79	-1773	-351	-16323	10	42	-27	-1286	-151	-3429	2	42
D:	740.32	-1773	-351	-16323	66	80	-98	-1295	-180	-3375	3	42
D:	741.97	-1571	-470	-16323	66	80	-98	-1295	-180	-3375	0	40
D:	743.69	-1571	-470	-16323	123	-1	-129	-1295	-180	-3375	1	40
D:	745.26	-1607	-456	-16454	123	-1	-129	-1295	-180	-3375	0	40
D:	746.84	-1607	-456	-16454	123	-1	-129	-1295	-180	-3375	2	40
D:	748.44	-1607	-456	-16454	44	33	-109	-1295	-180	-3375	3	40
D:	750.01	-1637	-429	-16233	44	33	-109	-1295	-180	-3375	0	40
D:	751.59	-1637	-429	-16233	63	93	-109	-1295	-180	-3375	1	40
D:	753.22	-1845	-428	-16377	63	93	-109	-1295	-180	-3375	0	40
D:	754.83	-1845	-428	-16377	63	93	-109	-1295	-180	-3375	2	40
D:	756.44	-1845	-428	-16377	12	44	-81	-1295	-180	-3375	3	40
D:	758.09	-1826	-527	-16416	12	44	-81	-1295	-180	-3375	2	40
D:	759.83	-1826	-527	-16416	80	97	-56	-1295	-180	-3375	1	40
D:	761.36	-1711	-432	-16239	80	97	-56	-1295	-137	-3466	0	40
D:	762.96	-1711	-432	-16239	80	97	-56	-1295	-137	-3466	2	41
D:	764.54	-1711	-432	-16239	66	176	-76	-1291	-137	-3466	3	41
D:	766.14	-1623	-501	-16397	66	176	-76	-1291	-137	-3466	2	41
D:	767.73	-1623	-501	-16397	10	60	7	-1291	-137	-3466	1	41
D:	769.28	-1702	-352	-16402	10	60	7	-1291	-137	-3466	0	41
D:	771.10	-1702	-352	-16402	10	55	-104	-1291	-137	-3466	1	41
D:	772.87	-1545	-416	-16734	81	55	-104	-1291	-137	-3466	3	41
D:	774.54	-1545	-416	-16734	81	55	-104	-1291	-137	-3466	2	41
D:	776.13	-1545	-416	-16734	104	41	-91	-1291	-137	-3466	3	41
D:	777.73	-1755	-454	-16333	104	41	-91	-1291	-137	-3466	0	41
D:	779.29	-1755	-454	-16333	104	42	-111	-1291	-137	-3466	1	41
D:	780.86	-1630	-421	-16238	108	42	-111	-1291	-137	-3466	3	41
D:	782.54	-1630	-421	-16238	108	42	-111	-1291	-137	-3466	2	41
D:	784.14	-1630	-421	-16238	126	36	-167	-1294	-159	-3336	3	41
D:	785.74	-1601	-498	-16170	126	36	-167	-1294	-159	-3336	0	41
D:	787.29	-1601	-498	-16170	126	21	-18	-1294	-159	-3336	1	41
D:	788.85	-1601	-498	-16170	143	21	-18	-1294	-159	-3336	3	41
D:	790.44	-1718	-397	-16078	143	21	-18	-1294	-159	-3336	2	41
D:	791.99	-1718	-397	-16078	-74	8	-140	-1294	-159	-3336	1	41
D:	793.57	-1783	-463	-16363	-74	8	-140	-1294	-159	-3336	0	41
D:	795.16	-1783	-463	-16363	-74	110	-85	-1294	-159	-3336	1	41
D:	796.73	-1783	-463	-16363	24	110	-85	-1294	-159	-3336	3	41
D:	798.30	-1719	-397	-16512	24	110	-85	-1294	-159	-3336	2	41
D:	799.86	-1719	-397	-16512	19	174	-148	-1294	-159	-3336	1	41
D:	801.44	-1714	-409	-16236	19	174	-148	-1294	-159	-3336	0	41
D:	802.99	-1714	-409	-16236	19	97	-47	-1294	-159	-3336	2	41
D:	804.62	-1714	-409	-16236	32	97	-47	-1282	-119	-3310	3	41
D:	806.27	-1721	-510	-16252	32	97	-47	-1282	-119	-3310	2	41
D:	807.83	-1721	-510	-16252	39	104	-40	-1282	-119	-3310	1	41
D:	809.36	-1741	-527	-16124	39	104	-40	-1282	-119	-3310	0	41
D:	810.93	-1741	-527	-16124	39	104	-40	-1282	-119	-3310	2	41
D:	812.54	-1741	-527	-16124	16	49	-97	-1282	-119	-3310	3	41
D:	814.17	-1556	-504	-16248	16	49	-97	-1282	-119	-3310	2	41
D:	815.80	-1556	-504	-16248	-6	8	-31	-1282	-119	-3310	1	41
D:	817.44	-1690	-431	-16363	-6	8	-31	-1282	-119	-3310	0	41
D:	819.01	-1690	-431	-16363	-6	50	-96	-1282	-119	-3310	1	41
D:	820.80	-1690	-431	-16363	-20	50	-96	-1282	-119	-3310	3	41
D:	822.35	-1626	-483	-16311	-20	50	-96	-1282	-119	-3310	2	41
D:	823.98	-1626	-483	-16311	-101	-9	-90	-1282	-171	-3379	1	41
D:	825.57	-1718	-419	-16394	-101	-9	-90	-1282	-171	-3379	0	41
D:	827.15	-1718	-419	-16394	-101	21	-105	-1282	-171	-3379	1	41
D:	828.74	-1718	-419	-16394	-55	21	-105	-1282	-171	-3379	3	41
D:	830.29	-1796	-412	-16496	-55	21	-105	-1282	-171	-3379	2	41
D:	831.83	-1796	-412	-16496	-91	49	-115	-1282	-171	-3379	1	41
D:	833.37	-1753	-487	-16361	-91	49	-115	-1282	-171	-3379	0	41
D:	834.96	-1753	-487	-16361	-91	49	-115	-1282	-171	-3379	2	41
D:	836.60	-1753	-487	-16361	-193	84	-83	-1282	-171	-3379	3	41
D:	838.29	-1360	-475	-16616	-193	84	-83	-1282	-171	-3379	2	41
D:	839.85	-1360	-475	-16616	-233	57	-158	-1282	-171	-3379	1	41
D:	841.44	-1528	-519	-16315	-233	57	-158	-1282	-171	-3379	0	41
D:	842.98	-1528	-519	-16315	-233	55	-180	-1282	-171	-3379	1	41
D:	844.80	-1528	-519	-16315	-238	55	-180	-1278	-123	-3401	3	41
D:	846.34	-1401	-331	-16323	-238	55	-180	-1278	-123	-3401	2	41
D:	847.91	-1401	-331	-16323	-242	51	-176	-1278	-123	-3401	1	41
D:	849.54	-1758	-309	-16398	-242	51	-176	-1278	-123	-3401	0	41
D:	851.16	-1758	-309	-16398	-242	21	-186	-1278	-123	-3401	1	41
D:	852.76	-1758	-309	-16398	-169	21	-186	-1278	-123	-3401	3	41
D:	854.36	-1895	-247	-16202	-169	21	-186	-1278	-123	-3401	2	41
D:	856.17	-1895	-247	-16202	-149	-35	-222	-1278	-123	-3401	3	41
D:	857.81	-1961	-197	-16502	-149	-35	-222	-1278	-123	-3401	0	41
D:	859.36	-1961	-197	-16502	107	116	-158	-1278	-123	-3401	1	41
D:	861.01	-1935	-243	-16183	13	116	-158	-1278	-123	-3401	3	41
D:	862.62	-1935	-243	-16183	13	116	-158	-1278	-123	-3401	2	41
D:	864.26	-1935	-243	-16183	123	22	-85	-1289	-158	-3264	3	41
D:	865.85	-1700	-446	-16341	123	22	-85	-1289	-158	-3264	0	42
D:	867.44	-1700	-446	-16341	160	-38	-63	-1289	-158	-3264	1	42
D:	868.97	-1784	-413	-16263	160	-38	-63	-1289	-158	-3264	3	42
D:	870.54	-1784	-413	-16263	160	-38	-63	-1289	-158	-3264	2	42
D:	872.26	-1784	-413	-16263	69	41	19	-1289	-158	-3264	3	42
D:	873.99	-1652	-676	-16413	69	41	19	-1289	-158	-3264	0	42
D:	875.63	-1652	-676	-16413	154	103	-122	-1289	-158	-3264	1	42
D:	877.26	-1466	-476	-16504	154	103	-122	-1289	-158	-3264	0	42
D:	878.83	-1466	-476	-16504	154	103	-122	-1289	-158	-3264	2	42
D:	880.44	-1466	-476	-16504	168	39	-66	-1289	-158	-3264	3	42
D:	881.99	-1609	-464	-16181	168	39	-66	-1289	-158	-3264	0	42
D:	883.62	-1609	-464	-16181	140	98	-128	-1289	-158	-3264	1	42
D:	885.19	-1328	-491	-16468	140	98	-128	-1290	-140	-3251	0	42
D:	886.94	-1328	-491	-16468	140	5	-134	-1290	-140	-3251	2	41
D:	888.70	-1328	-491	-16468	183	5	-134	-1290	-140	-3251	3	41
D:	890.25	-1681	-417	-16269	183	5	-134	-1290	-140	-3251	2	41
D:	891.95	-1681	-417	-16269	162	89	-58	-1290	-140	-3251	1	41
D:	893.54	-1755	-328	-16222	162	89	-58	-1290	-140	-3251	0	41
D:	895.16	-1755	-328	-16222	162	-23	-140	-1290	-140	-3251	1	41
D:	896.73	-1755	-328	-16222	64	-23	-140	-1290	-140	-3251	3	41
D:	898.31	-1819	-494	-16517	64	-23	-140	-1290	-140	-3251	2	41
D:	899.88	-1819	-494	-16517	44	-19	-79	-1290	-140	-3251	1	41
D:	901.53	-1928	-357	-16348	44	-19	-79	-1290	-140	-3251	0	41
D:	903.17	-1928	-357	-16348	44	-87	-92	-1290	-140	-3251	1	41
D:	904.96	-1788	-453	-16262	34	-87	-92	-1289	-149	-3301	3	41
D:	906.54	-1788	-453	-16262	34	-87	-92	-1289	-149	-3301	2	42
D:	908.11	-1788	-453	-16262	4	57	-92	-1289	-149	-3301	3	42
D:	909.72	-1766	-521	-16583	4	57	-92	-1289	-149	-3301	0	42
D:	911.26	-1766	-521	-16583	4	40	-51	-1289	-149	-3301	1	42
D:	912.83	-1766	-521	-16583	24	40	-51	-1289	-149	-3301	3	42
D:	914.44	-1663	-590	-16290	24	40	-51	-1289	-149	-3301	2	42
D:	916.01	-1663	-590	-16290	-1	12	-90	-1289	-149	-3301	1	42
D:	917.61	-1581	-568	-16349	-1	12	-90	-1289	-149	-3301	0	42
D:	919.44	-1581	-568	-16349	17	50	-198	-1289	-149	-3301	1	42
D:	920.99	-1752	-529	-16512	17	50	-198	-1289	-149	-3301	3	42
D:	922.76	-1752	-529	-16512	17	50	-198	-1289	-149	-3301	2	42
D:	924.38	-1752	-529	-16512	14	42	-67	-1289	-102	-3329	3	42
D:	925.95	-1616	-264	-16189	14	42	-67	-1289	-102	-3329	0	42
D:	927.60	-1616	-264	-16189	101	38	-100	-1289	-102	-3329	1	42
D:	929.17	-1525	-619	-16259	101	38	-100	-1288	-102	-3329	0	42
D:	930.75	-1525	-619	-16259	101	38	-100	-1288	-102	-3329	2	42
D:	932.53	-1525	-619	-16259	-101	-37	-35	-1288	-102	-3329	3	42
D:	934.13	-1823	-395	-16165	-101	-37	-35	-1288	-102	-3329	2	42
D:	935.74	-1823	-395	-16165	3	114	-135	-1288	-102	-3329	1	42
D:	937.32	-1592	-372	-16626	3	114	-135	-1288	-102	-3329	0	42
D:	938.99	-1592	-372	-16626	3	121	-135	-1288	-102	-3329	1	42
D:	940.74	-1592	-372	-16626	-21	121	-135	-1288	-102	-3329	3	42
D:	942.34	-1629	-707	-16341	-21	121	-135	-1288	-102	-3329	2	42
D:	943.96	-1629	-707	-16341	53	-18	-103	-1288	-102	-3329	1	42
D:	945.54	-1786	-494	-16235	53	-18	-103	-1288	-102	-3329	0	42
D:	947.16	-1786	-494	-16235	53	78	-134	-1288	-102	-3329	1	42
D:	948.72	-1786	-494	-16235	159	78	-134	-1294	-141	-3410	3	42
D:	950.29	-1793	-498	-16632	159	78	-134	-1294	-141	-3410	2	42
D:	951.85	-1793	-498	-16632	244	73	-49	-1294	-141	-3410	1	42
D:	953.44	-1742	-547	-16311	244	73	-49	-1294	-141	-3410	0	42
D:	955.02	-1742	-547	-16311	244	62	-111	-1294	-141	-3410	2	42
D:	956.62	-1742	-547	-16311	131	62	-111	-1294	-141	-3410	3	42
D:	958.25	-1629	-530	-16571	131	62	-111	-1294	-141	-3410	2	42
D:	959.83	-1629	-530	-16571	217	85	-178	-1294	-141	-3410	1	42
D:	961.44	-1723	-447	-16482	217	85	-178	-1294	-141	-3410	0	42
D:	962.99	-1723	-447	-16482	217	24	-102	-1294	-141	-3410	1	42
D:	964.81	-1723	-447	-16482	167	24	-102	-1294	-141	-3410	3	42
D:	966.44	-1468	-404	-16431	167	24	-102	-1294	-141	-3410	2	42
D:	967.99	-1468	-404	-16431	146	25	-149	-1293	-133	-3438	1	42
D:	969.60	-1645	-427	-16584	146	25	-149	-1293	-133	-3438	0	42
D:	971.17	-1645	-427	-16584	146	31	-49	-1293	-133	-3438	1	42
D:	972.76	-1645	-427	-16584	83	31	-49	-1293	-133	-3438	3	42
D:	974.35	-1780	-263	-16313	83	31	-49	-1293	-133	-3438	2	42
D:	975.91	-1780	-263	-16313	143	47	-87	-1293	-133	-3438	1	42
D:	977.55	-1449	-522	-16693	143	47	-87	-1293	-133	-3438	0	42
D:	979.16	-1449	-522	-16693	143	45	-31	-1293	-133	-3438	1	42
D:	980.84	-1449	-522	-16693	67	45	-31	-1293	-133	-3438	3	42
D:	982.44	-1698	-884	-15925	67	45	-31	-1293	-133	-3438	2	42
D:	984.21	-1698	-884	-15925	-60	80	-46	-1293	-133	-3438	3	42
D:	985.86	-1631	-279	-16231	-60	80	-46	-1293	-133	-3438	0	42
D:	987.45	-1631	-279	-16231	-49	62	-27	-1293	-133	-3438	1	42
D:	989.03	-1501	-920	-15763	-49	62	-27	-1283	-148	-3321	0	42
D:	990.87	-1501	-920	-15763	-49	62	-27	-1283	-148	-3321	2	42
D:	992.45	-1501	-920	-15763	-41	79	-33	-1283	-148	-3321	3	42
D:	994.04	-1615	-729	-16138	-41	79	-33	-1283	-148	-3321	0	42
D:	995.62	-1615	-729	-16138	-58	-81	-104	-1283	-148	-3321	1	42
D:	997.21	-1734	29	-16398	-58	-81	-104	-1283	-148	-3321	0	42
D:	998.84	-1734	29	-16398	-58	-81	-104	-1283	-148	-3321	2	42
D:	1000.45	-1734	29	-16398	-61	29	-69	-1283	-148	-3321	3	42
D:	1002.23	-1891	-594	-15953	-61	29	-69	-1283	-148	-3321	2	42
D:	1003.88	-1891	-594	-15953	-63	-36	-53	-1283	-148	-3321	1	42
D:	1005.54	-1703	-569	-16094	-63	-36	-53	-1283	-148	-3321	0	42
D:	1007.15	-1703	-569	-16094	-63	-49	-4	-1283	-148	-3321	1	42
D:	1008.83	-1703	-569	-16094	-42	-49	-4	-1285	-121	-3379	3	42
D:	1010.44	-1768	-343	-16015	-42	-49	-4	-1285	-121	-3379	2	42
D:	1012.01	-1768	-343	-16015	-142	2	-87	-1285	-121	-3379	1	42
D:	1013.60	-1715	28	-16115	-142	2	-87	-1285	-121	-3379	0	42
D:	1015.16	-1715	28	-16115	-142	-3	-102	-1285	-121	-3379	1	42
D:	1016.83	-1715	28	-16115	-61	-3	-102	-1285	-121	-3379	3	42
D:	1018.36	-1643	-662	-16354	-61	-3	-102	-1285	-121	-3379	2	42
D:	1020.24	-1643	-662	-16354	-125	-83	-143	-1285	-121	-3379	3	42
D:	1021.82	-1857	-321	-16509	-125	-83	-143	-1285	-121	-3379	0	42
D:	1023.44	-1857	-321	-16509	-107	-29	-123	-1285	-121	-3379	1	42
D:	1025.00	-1653	-569	-16167	-107	-29	-123	-1285	-121	-3379	3	42
D:	1026.62	-1653	-569	-16167	-107	-29	-123	-1285	-121	-3379	2	42
D:	1028.37	-1653	-569	-16167	-70	47	-139	-1281	-131	-3287	3	42
D:	1030.06	-1714	-606	-16754	-70	47	-139	-1281	-131	-3287	0	42
D:	1031.63	-1714	-606	-16754	-47	6	-49	-1281	-131	-3287	1	42
D:	1033.28	-1909	-387	-16221	-47	6	-49	-1281	-131	-3287	0	42
D:	1034.94	-1909	-387	-16221	-47	6	-49	-1281	-131	-3287	2	42
D:	1036.54	-1909	-387	-16221	-30	68	6	-1281	-131	-3287	3	42
D:	1038.13	-1793	-495	-16424	-30	68	6	-1281	-131	-3287	2	42
D:	1039.73	-1793	-495	-16424	-104	162	-165	-1281	-131	-3287	1	42
D:	1041.29	-1796	-414	-16355	-104	162	-165	-1281	-131	-3287	0	42
D:	1042.89	-1796	-414	-16355	-104	162	-165	-1281	-131	-3287	2	42
D:	1044.54	-1796	-414	-16355	-148	3	-163	-1281	-131	-3287	3	42
D:	1046.16	-1611	-493	-16193	-148	3	-163	-1281	-131	-3287	2	42
D:	1047.79	-1611	-493	-16193	-189	29	-62	-1281	-131	-3287	1	42
D:	1049.37	-1754	-557	-16465	-189	29	-62	-1290	-140	-3224	0	42
D:	1051.29	-1754	-557	-16465	-189	118	-140	-1290	-140	-3224	1	42
D:	1052.91	-1725	-489	-16208	-285	118	-140	-1290	-140	-3224	3	42
D:	1054.54	-1725	-489	-16208	-285	118	-140	-1290	-140	-3224	2	42
D:	1056.16	-1725	-489	-16208	-274	59	-98	-1290	-140	-3224	3	42
D:	1057.79	-1620	-644	-16628	-274	59	-98	-1290	-140	-3224	0	42
D:	1059.34	-1620	-644	-16628	-274	80	-137	-1290	-140	-3224	1	42
D:	1060.96	-1631	-598	-16422	-353	80	-137	-1290	-140	-3224	3	42
D:	1062.56	-1631	-598	-16422	-353	80	-137	-1290	-140	-3224	2	42
D:	1064.17	-1631	-598	-16422	-317	7	22	-1290	-140	-3224	3	42
D:	1066.01	-1658	-569	-16259	-317	7	22	-1290	-140	-3224	0	42
D:	1067.62	-1658	-569	-16259	-309	26	-74	-1290	-140	-3224	1	42
D:	1069.28	-1644	-522	-16197	-309	26	-74	-1296	-146	-3277	0	42
D:	1070.83	-1644	-522	-16197	-309	26	-74	-1296	-146	-3277	2	42
D:	1072.44	-1644	-522	-16197	-336	27	-70	-1296	-146	-3277	3	42
D:	1073.99	-1773	-417	-16203	-336	27	-70	-1296	-146	-3277	0	42
D:	1075.66	-1773	-417	-16203	-325	13	-37	-1296	-146	-3277	1	42
D:	1077.32	-1833	-413	-16491	-325	13	-37	-1296	-146	-3277	0	42
D:	1078.91	-1833	-413	-16491	-325	13	-37	-1296	-146	-3277	2	42
D:	1080.54	-1833	-413	-16491	-286	-74	-120	-1296	-146	-3277	3	42
D:	1082.15	-1859	-351	-16434	-286	-74	-120	-1296	-146	-3277	2	42
D:	1083.73	-1859	-351	-16434	-246	21	-97	-1296	-146	-3277	1	42
D:	1085.32	-1948	-294	-16304	-246	21	-97	-1296	-146	-3277	0	42
D:	1086.88	-1948	-294	-16304	-246	21	-97	-1296	-146	-3277	1	42
D:	1088.76	-1948	-294	-16304	-330	33	-124	-1296	-146	-3486	3	42
D:	1090.32	-1772	-397	-16349	-330	33	-124	-1296	-146	-3486	2	42
D:	1091.91	-1772	-397	-16349	-237	-60	-19	-1289	-108	-3486	3	42
D:	1093.77	-1816	-305	-16258	-237	-60	-19	-1289	-108	-3486	0	42
D:	1095.36	-1816	-305	-16258	-237	44	-17	-1289	-108	-3486	1	42
D:	1096.98	-1685	-464	-16297	-236	44	-17	-1289	-108	-3486	3	42
D:	1098.56	-1685	-464	-16297	-236	44	-17	-1289	-108	-3486	2	42
D:	1100.16	-1685	-464	-16297	-263	77	-118	-1289	-108	-3486	3	42
D:	1101.72	-1560	-435	-16227	-263	77	-118	-1289	-108	-3486	0	42
D:	1103.31	-1560	-435	-16227	-7	51	-35	-1289	-108	-3486	1	42
D:	1104.86	-1560	-285	-16265	-37	51	-35	-1289	-108	-3486	3	42
D:	1106.59	-1696	-285	-16265	-37	51	-35	-1289	-108	-3486	2	42
D:	1108.38	-1696	-285	-16265	-13	31	-126	-1289	-108	-3486	3	42
D:	1109.97	-1617	-454	-16470	-13	31	-126	-1289	-108	-3486	0	42
D:	1111.72	-1617	-454	-16470	-52	11	-16	-1289	-108	-3486	1	42
D:	1113.36	-1978	-436	-16287	-52	11	-16	-1299	-153	-3290	0	42
D:	1114.95	-1978	-436	-16287	-52	85	-99	-1299	-153	-3290	2	42
D:	1116.68	-1978	-436	-16287	34	85	-99	-1299	-153	-3290	3	42
D:	1118.24	-1692	-474	-16418	34	85	-99	-1299	-153	-3290	2	42
D:	1119.83	-1692	-474	-16418	-38	-17	-113	-1299	-153	-3290	1	42
D:	1121.44	-1688	-491	-16562	-38	-17	-113	-1299	-153	-3290	0	42
D:	1123.04	-1688	-491	-16562	-38	-174	-77	-1299	-153	-3290	2	42
D:	1124.62	-1688	-491	-16562	-164	-174	-77	-1299	-153	-3290	3	42
D:	1126.22	-1780	-515	-16482	-164	-174	-77	-1299	-153	-3290	2	42
D:	1127.83	-1780	-515	-16482	-482	-12	-55	-1299	-153	-3290	1	42
D:	1129.44	-1622	-484	-16559	-482	-12	-55	-1299	-153	-3290	0	42
D:	1131.01	-1622	-484	-16559	-482	1	-53	-1299	-153	-3290	2	40
D:	1132.62	-1622	-484	-16559	-186	1	-53	-1291	-128	-3178	3	40
D:	1134.22	-1713	-407	-15921	-186	1	-53	-1291	-128	-3178	2	40
D:	1135.86	-1713	-407	-15921	-269	-7	-150	-1291	-128	-3178	1	40
D:	1137.44	-1657	-480	-16034	-269	-7	-150	-1291	-128	-3178	0	40
D:	1139.02	-1657	-480	-16034	-269	28	-107	-1291	-128	-3178	2	40
D:	1140.61	-1657	-480	-16034	-317	28	-107	-1291	-128	-3178	3	40
D:	1142.16	-1693	-357	-16226	-317	28	-107	-1291	-128	-3178	2	40
D:	1143.75	-1693	-357	-16226	-139	3	-99	-1291	-128	-3178	1	40
D:	1145.30	-1693	-344	-16444	-139	3	-99	-1291	-128	-3178	0	40
D:	1146.88	-1693	-344	-16444	-139	3	-99	-1291	-128	-3178	2	40
D:	1148.45	-1693	-344	-16444	-35	30	-56	-1291	-128	-3178	3	40
D:	1150.01	-1683	-427	-16555	-35	30	-56	-1291	-128	-3178	0	42
D:	1151.62	-1683	-427	-16555	-131	-22	-122	-1291	-128	-3178	1	42
D:	1153.19	-1685	-372	-16365	-131	-22	-122	-1296	-150	-3272	0	42
D:	1154.81	-1685	-372	-16365	-131	-22	-122	-1296	-150	-3272	2	42
D:	1156.44	-1685	-372	-16365	-218	-7	-165	-1296	-150	-3272	3	42
D:	1158.00	-1530	-488	-16283	-218	-7	-165	-1296	-150	-3272	0	42
D:	1159.64	-1530	-488	-16283	-315	76	-136	-1296	-150	-3272	1	42
D:	1161.26	-1860	-417	-16393	-315	76	-136	-1296	-150	-3272	0	42
D:	1162.84	-1860	-417	-16393	-315	76	-136	-1296	-150	-3272	2	42
D:	1164.60	-1860	-417	-16393	-450	-8	-135	-1296	-150	-3272	3	42
D:	1166.28	-1780	-431	-16275	-450	-8	-135	-1296	-150	-3272	2	42
D:	1167.85	-1780	-431	-16275	-428	45	-66	-1296	-150	-3272	1	42
D:	1169.45	-1790	-485	-16422	-428	45	-66	-1296	-150	-3272	0	42
D:	1171.03	-1790	-485	-16422	-428	61	-114	-1296	-150	-3272	2	42
D:	1172.64	-1790	-485	-16422	-591	61	-114	-1293	-145	-3290	3	42
D:	1174.30	-1748	-395	-16297	-591	61	-114	-1293	-145	-3290	2	42
D:	1175.88	-1748	-395	-16297	-619	-24	-101	-1293	-145	-3290	1	42
D:	1177.46	-1659	-452	-16136	-619	-24	-101	-1293	-145	-3290	0	42
D:	1179.00	-1659	-452	-16136	-619	24	-184	-1293	-145	-3290	2	42
D:	1180.63	-1659	-452	-16136	-635	24	-184	-1293	-145	-3290	3	42
D:	1182.26	-1762	-448	-16159	-635	24	-184	-1293	-145	-3290	2	42
D:	1183.85	-1762	-448	-16159	-520	-46	-46	-1293	-145	-3290	1	42
D:	1185.44	-1671	-499	-16381	-520	-46	-46	-1293	-145	-3290	0	42
D:	1187.01	-1671	-499	-16381	-520	30	-112	-1293	-145	-3290	2	42
D:	1188.66	-1671	-499	-16381	-368	30	-112	-1293	-145	-3290	3	42
D:	1190.25	-1766	-414	-16413	-368	30	-112	-1293	-145	-3290	2	42
D:	1191.85	-1766	-414	-16413	-430	117	-125	-1293	-145	-3290	1	42
D:	1193.44	-1808	-301	-16182	-430	117	-125	-1300	-154	-3260	0	42
D:	1194.99	-1808	-301	-16182	-430	-25	-147	-1300	-154	-3260	2	42
D:	1196.62	-1808	-301	-16182	-426	-25	-147	-1300	-154	-3260	3	42
D:	1198.21	-1632	-367	-16293	-426	-25	-147	-1300	-154	-3260	2	42
D:	1199.86	-1632	-367	-16293	-248	55	-129	-1300	-154	-3260	1	42
D:	1201.44	-1843	-319	-16334	-248	55	-129	-1300	-154	-3260	0	42
D:	1202.99	-1843	-319	-16334	-248	-28	-75	-1300	-154	-3260	2	42
D:	1204.62	-1843	-319	-16334	-277	-28	-75	-1300	-154	-3260	3	42
D:	1206.21	-1715	-501	-16376	-277	-28	-75	-1300	-154	-3260	2	42
D:	1207.81	-1715	-501	-16376	-174	-36	-26	-1300	-154	-3260	1	42
D:	1209.44	-1711	-295	-16209	-174	-36	-26	-1300	-154	-3260	0	42
D:	1211.01	-1711	-295	-16209	-174	51	-76	-1300	-154	-3260	2	42
D:	1212.62	-1711	-295	-16209	-105	51	-76	-1284	-170	-3303	3	42
D:	1214.27	-1811	-374	-16230	-105	51	-76	-1284	-170	-3303	2	42
D:	1215.83	-1811	-374	-16230	-110	29	-123	-1284	-170	-3303	1	42
D:	1217.44	-1765	-377	-16351	-110	29	-123	-1284	-170	-3303	0	42
D:	1219.00	-1765	-377	-16351	-110	24	-124	-1284	-170	-3303	2	42
D:	1220.62	-1765	-377	-16351	-192	24	-124	-1284	-170	-3303	3	42
D:	1222.29	-1753	-323	-16257	-192	24	-124	-1284	-170	-3303	2	42
D:	1224.02	-1753	-323	-16257	-94	36	-60	-1284	-170	-3303	1	42
D:	1225.59	-1720	-383	-16329	-94	36	-60	-1284	-170	-3303	0	42
D:	1227.15	-1720	-383	-16329	-94	36	-93	-1284	-170	-3303	1	42
D:	1228.73	-1720	-383	-16329	-104	36	-93	-1284	-170	-3303	3	42
D:	1230.30	-1611	-449	-16601	-104	36	-93	-1284	-170	-3303	2	42
D:	1231.88	-1611	-449	-16601	-148	5	-124	-1284	-170	-3303	1	42
D:	1233.60	-1723	-311	-16338	-148	5	-124	-1296	-166	-3362	0	42
D:	1235.36	-1723	-311	-16338	-148	-18	-65	-1296	-166	-3362	1	42
D:	1236.94	-1721	-456	-16372	-94	-18	-65	-1296	-166	-3362	3	42
D:	1238.55	-1721	-456	-16372	-94	-18	-65	-1296	-166	-3362	2	42
D:	1240.16	-1721	-456	-16372	-216	-28	-156	-1296	-166	-3362	3	42
D:	1241.74	-1688	-413	-16434	-216	-28	-156	-1296	-166	-3362	0	42
D:	1243.28	-1688	-413	-16434	-216	108	-66	-1296	-166	-3362	1	42
D:	1244.83	-1688	-413	-16434	-123	108	-66	-1296	-166	-3362	3	42
D:	1246.44	-1792	-448	-16446	-123	108	-66	-1296	-166	-3362	2	42
D:	1248.01	-1792	-448	-16446	-127	-60	-85	-1296	-166	-3362	1	42
D:	1249.68	-1765	-382	-16530	-127	-60	-85	-1296	-166	-3362	0	42
D:	1251.44	-1765	-382	-16530	-123	-18	-160	-1296	-166	-3362	1	42
D:	1253.02	-1843	-401	-16196	-123	-18	-160	-1296	-166	-3234	3	42
D:	1254.60	-1843	-401	-16196	-123	-18	-160	-1296	-166	-3234	2	42
D:	1256.20	-1843	-401	-16196	-100	-40	-157	-1289	-160	-3234	3	42
D:	1257.91	-1771	-416	-16333	-100	-40	-157	-1289	-160	-3234	0	42
D:	1259.54	-1771	-416	-16333	-149	-89	-84	-1289	-160	-3234	1	42
D:	1261.14	-1923	-367	-16555	-149	-89	-84	-1289	-160	-3234	0	42
D:	1262.73	-1923	-367	-16555	-149	-89	-84	-1289	-160	-3234	2	42
D:	1264.33	-1923	-367	-16555	-248	76	-61	-1289	-160	-3234	3	42
D:	1265.88	-1717	-304	-16398	-248	76	-61	-1289	-160	-3234	0	42
D:	1267.50	-1717	-304	-16398	-340	4	-28	-1289	-160	-3234	1	42
D:	1269.25	-1473	-363	-16499	-340	4	-28	-1289	-160	-3234	0	42
D:	1270.86	-1473	-363	-16499	-340	4	-28	-1289	-160	-3234	2	42
D:	1272.44	-1473	-363	-16499	-444	68	-58	-1289	-160	-3234	3	42
D:	1273.99	-1697	-244	-16043	-444	68	-58	-1289	-160	-3234	0	42
D:	1275.57	-1697	-244	-16043	-412	31	-53	-1289	-160	-3234	1	42
D:	1277.13	-1771	-325	-16408	-412	31	-53	-1284	-171	-3357	0	42
D:	1278.73	-1771	-325	-16408	-412	31	-53	-1284	-171	-3357	2	42
D:	1280.30	-1771	-325	-16408	-431	-25	-46	-1284	-171	-3357	3	42
D:	1281.88	-1709	-406	-16235	-431	-25	-46	-1284	-171	-3357	0	42
D:	1283.70	-1709	-406	-16235	-337	32	-57	-1284	-171	-3357	1	42
D:	1285.32	-1733	-336	-16439	-337	32	-57	-1284	-171	-3357	0	42
D:	1287.04	-1733	-336	-16439	-337	55	-64	-1284	-171	-3357	1	42
D:	1288.72	-1733	-336	-16439	-331	55	-64	-1284	-171	-3357	3	42
D:	1290.32	-1700	-329	-16547	-331	55	-64	-1284	-171	-3357	2	42
D:	1291.90	-1700	-329	-16547	-323	54	-86	-1284	-171	-3357	1	42
D:	1293.54	-1788	-403	-16261	-323	54	-86	-1284	-171	-3357	0	42
D:	1295.13	-1788	-403	-16261	-323	-3	-95	-1284	-171	-3357	1	42
D:	1296.73	-1788	-403	-16261	-295	-3	-95	-1272	-176	-3445	3	42
D:	1298.33	-1831	-362	-16263	-295	-3	-95	-1272	-176	-3445	2	42
D:	1299.91	-1831	-362	-16263	-294	96	-43	-1272	-176	-3445	1	42
D:	1301.53	-1727	-357	-16551	-294	96	-43	-1272	-176	-3445	0	42
D:	1303.16	-1727	-357	-16551	-294	146	-139	-1272	-176	-3445	1	42
D:	1304.73	-1727	-357	-16551	-163	146	-139	-1272	-176	-3445	3	42
D:	1306.28	-1854	-331	-16369	-163	146	-139	-1272	-176	-3445	2	42
D:	1307.88	-1854	-331	-16369	-228	-22	-68	-1272	-176	-3445	1	42
D:	1309.44	-1751	-387	-16619	-228	-22	-68	-1272	-176	-3445	0	42
D:	1310.99	-1751	-387	-16619	-228	23	-165	-1272	-176	-3445	2	42
D:	1312.62	-1751	-387	-16619	-173	23	-165	-1272	-176	-3445	3	42
D:	1314.27	-1763	-294	-16346	-173	23	-165	-1272	-176	-3445	2	42
D:	1315.83	-1763	-294	-16346	-223	-8	-52	-1272	-176	-3445	1	42
D:	1317.44	-1702	-243	-16258	-223	-8	-52	-1296	-184	-3390	0	42
D:	1319.00	-1702	-243	-16258	-223	30	-105	-1296	-184	-3390	2	42
D:	1320.62	-1702	-243	-16258	-243	30	-105	-1296	-184	-3390	3	42
D:	1322.26	-1584	-278	-16303	-243	30	-105	-1296	-184	-3390	2	42
D:	1323.83	-1584	-278	-16303	-226	-86	-137	-1296	-184	-3390	1	42
D:	1325.44	-1820	-225	-16283	-226	-86	-137	-1296	-184	-3390	0	42
D:	1326.96	-1820	-225	-16283	-226	98	-29	-1296	-184	-3390	2	42
D:	1328.62	-1820	-225	-16283	-250	98	-29	-1296	-184	-3390	3	42
D:	1330.27	-1594	-292	-16311	-250	98	-29	-1296	-184	-3390	2	42
D:	1331.85	-1594	-292	-16311	-326	135	-120	-1296	-184	-3390	1	42
D:	1333.44	-1613	-357	-16198	-326	135	-120	-1296	-184	-3390	0	42
D:	1335.01	-1613	-357	-16198	-326	51	-50	-1296	-184	-3390	2	42
D:	1336.64	-1613	-357	-16198	-238	51	-50	-1286	-185	-3187	3	42
D:	1338.44	-1816	-250	-16251	-238	51	-50	-1286	-185	-3187	2	42
D:	1339.97	-1816	-250	-16251	-330	7	-53	-1286	-185	-3187	1	42
D:	1341.56	-1725	-286	-16492	-330	7	-53	-1286	-185	-3187	0	42
D:	1343.14	-1725	-286	-16492	-330	88	-96	-1286	-185	-3187	1	42
D:	1344.73	-1725	-286	-16492	-307	88	-96	-1286	-185	-3187	3	42
D:	1346.28	-1600	-235	-16145	-307	88	-96	-1286	-185	-3187	2	42
D:	1347.84	-1600	-235	-16145	-125	88	-69	-1286	-185	-3187	1	42
D:	1349.36	-1724	-308	-16510	-125	88	-69	-1286	-185	-3187	0	42
D:	1350.95	-1724	-308	-16510	-125	88	-69	-1286	-185	-3187	2	42
D:	1352.73	-1724	-308	-16510	-135	109	-69	-1286	-185	-3187	3	42
D:	1354.33	-1778	-246	-16480	-135	109	-69	-1286	-185	-3187	2	42
D:	1355.91	-1778	-246	-16480	-69	37	-141	-1286	-185	-3187	1	42
D:	1357.53	-1795	-269	-16096	-69	37	-141	-1282	-188	-3352	0	42
D:	1359.14	-1795	-269	-16096	-69	43	-127	-1282	-188	-3352	1	42
D:	1360.83	-1795	-269	-16096	57	43	-127	-1282	-188	-3352	3	42
D:	1362.44	-1698	-256	-16813	57	43	-127	-1282	-188	-3352	2	42
D:	1363.97	-1698	-256	-16813	40	-43	-68	-1282	-188	-3352	1	42
D:	1365.53	-1765	-279	-16356	40	-43	-68	-1282	-188	-3352	0	42
D:	1367.16	-1765	-279	-16356	40	163	-111	-1282	-188	-3352	1	42
D:	1368.83	-1765	-279	-16356	129	163	-111	-1282	-188	-3352	3	42
D:	1370.44	-1545	-305	-16450	129	163	-111	-1282	-188	-3352	2	42
D:	1372.03	-1545	-305	-16450	191	40	-121	-1282	-188	-3352	3	42
D:	1373.89	-1597	-254	-16439	191	40	-121	-1282	-188	-3352	0	42
D:	1375.54	-1597	-254	-16439	165	99	-153	-1282	-188	-3352	1	42
D:	1377.13	-1746	-246	-16293	165	99	-153	-1284	-168	-3496	0	42
D:	1378.73	-1746	-246	-16293	165	99	-153	-1284	-168	-3496	2	42
D:	1380.31	-1746	-246	-16293	54	95	-105	-1284	-168	-3496	3	42
D:	1381.88	-1656	-399	-16628	54	95	-105	-1284	-168	-3496	0	42
D:	1383.54	-1656	-399	-16628	36	12	-144	-1284	-168	-3496	1	42
D:	1385.16	-1863	-237	-16430	36	12	-144	-1284	-168	-3496	0	42
D:	1386.73	-1863	-237	-16430	36	12	-144	-1284	-168	-3496	2	42
D:	1388.34	-1863	-237	-16430	29	136	-44	-1284	-168	-3496	3	42
D:	1389.95	-1845	-328	-16272	29	136	-44	-1284	-168	-3496	0	42
D:	1391.53	-1845	-328	-16272	-45	127	-49	-1284	-168	-3496	1	42
D:	1393.15	-1800	-341	-16307	-45	127	-49	-1284	-168	-3496	0	42
D:	1394.73	-1800	-341	-16307	-45	127	-49	-1284	-168	-3496	2	42
D:	1396.32	-1800	-341	-16307	-156	83	-31	-1287	-186	-3260	3	42
D:	1397.90	-1821	-377	-15996	-156	83	-31	-1287	-186	-3260	0	42
D:	1399.54	-1821	-377	-15996	-167	15	-128	-1287	-186	-3260	1	42
D:	1401.11	-1764	-419	-16406	-167	15	-128	-1287	-186	-3260	0	42
D:	1402.74	-1764	-419	-16406	-167	15	-128	-1287	-186	-3260	2	42
D:	1404.32	-1764	-419	-16406	-148	49	-54	-1287	-186	-3260	3	42
D:	1406.10	-1758	-393	-16266	-148	49	-54	-1287	-186	-3260	2	42
D:	1407.71	-1758	-393	-16266	-109	-43	-77	-1287	-186	-3260	1	42
D:	1409.32	-1606	-287	-16481	-109	-43	-77	-1287	-186	-3260	0	42
D:	1410.88	-1606	-287	-16481	-109	-43	-77	-1287	-186	-3260	2	42
D:	1412.55	-1606	-287	-16481	-19	38	-36	-1287	-186	-3260	3	42
D:	1414.16	-1509	-276	-16327	-19	38	-36	-1287	-186	-3260	2	42
D:	1415.91	-1509	-276	-16327	5	57	-126	-1287	-186	-3516	1	42
D:	1417.53	-1753	-215	-16137	5	57	-126	-1287	-186	-3516	0	42
D:	1419.14	-1753	-215	-16137	5	84	-191	-1287	-186	-3516	1	42
D:	1420.71	-1753	-215	-16137	0	84	-191	-1284	-166	-3341	3	42
D:	1422.26	-1475	-303	-16399	0	84	-191	-1284	-166	-3341	2	42
D:	1423.84	-1475	-303	-16399	40	53	-165	-1284	-166	-3341	1	42
D:	1425.44	-1713	-307	-16339	40	53	-165	-1284	-166	-3341	0	42
D:	1426.99	-1713	-307	-16339	40	84	-13	-1284	-166	-3341	2	42
D:	1428.62	-1713	-307	-16339	42	84	-13	-1284	-166	-3341	3	42
D:	1430.26	-1928	-203	-16299	42	84	-13	-1284	-166	-3341	2	42
D:	1431.81	-1928	-203	-16299	92	13	-32	-1284	-166	-3341	1	42
D:	1433.37	-1771	-278	-16185	92	13	-32	-1284	-166	-3341	0	42
D:	1434.97	-1771	-278	-16185	92	-16	-51	-1284	-166	-3341	2	42
D:	1436.57	-1771	-278	-16185	127	-16	-51	-1284	-166	-3341	3	42
D:	1438.14	-1771	-285	-16209	127	-16	-51	-1284	-166	-3341	2	42
D:	1439.72	-1771	-285	-16209	108	-4	-97	-1284	-166	-3341	1	42
D:	1441.28	-1626	-339	-16245	108	-4	-97	-1294	-192	-3332	0	42
D:	1442.84	-1626	-339	-16245	108	-4	-97	-1294	-192	-3332	2	42
D:	1444.44	-1626	-339	-16245	70	95	-83	-1294	-192	-3332	3	42
D:	1445.98	-1753	-333	-16224	70	95	-83	-1294	-192	-3332	0	42
D:	1447.62	-1753	-333	-16224	32	67	-74	-1294	-192	-3332	1	42
D:	1449.22	-1647	-306	-16247	32	67	-74	-1294	-192	-3332	0	42
D:	1450.85	-1647	-306	-16247	32	67	-74	-1294	-192	-3332	2	42
D:	1452.44	-1647	-306	-16247	-5	25	-48	-1294	-192	-3332	3	42
D:	1454.02	-1481	-412	-16506	-5	25	-48	-1294	-192	-3332	0	42
D:	1455.61	-1481	-412	-16506	-74	-44	-76	-1294	-192	-3332	1	42
D:	1457.20	-1782	-383	-16350	-74	-44	-76	-1294	-192	-3332	0	42
D:	1458.84	-1782	-383	-16350	-74	-44	-76	-1294	-192	-3332	2	42
D:	1460.44	-1782	-383	-16350	-16	17	-38	-1291	-201	-3254	3	42
D:	1461.97	-1776	-289	-16376	-16	17	-38	-1291	-201	-3254	0	42
D:	1463.54	-1776	-289	-16376	106	-24	-17	-1291	-201	-3254	1	42
D:	1465.15	-1820	-343	-16151	106	-24	-17	-1291	-201	-3254	0	42
D:	1466.73	-1820	-343	-16151	106	-24	-17	-1291	-201	-3254	2	42
D:	1468.31	-1820	-343	-16151	157	-67	-77	-1291	-201	-3254	3	42
D:	1469.85	-1831	-309	-16286	157	-67	-77	-1291	-201	-3254	0	42
D:	1471.45	-1831	-309	-16286	84	30	-90	-1291	-201	-3254	1	42
D:	1473.27	-1758	-323	-16372	84	30	-90	-1291	-201	-3254	0	42
D:	1474.83	-1758	-323	-16372	84	30	-90	-1291	-201	-3254	2	42
D:	1476.44	-1758	-323	-16372	111	38	-109	-1291	-201	-3254	3	42
D:	1478.08	-1628	-378	-16471	111	38	-109	-1291	-201	-3254	2	42
D:	1479.84	-1628	-378	-16471	64	44	-62	-1291	-201	-3254	1	42
D:	1481.36	-1736	-233	-16108	64	44	-62	-1292	-186	-3302	0	42
D:	1482.91	-1736	-233	-16108	64	44	-62	-1292	-186	-3302	2	42
D:	1484.53	-1736	-233	-16108	-29	14	-86	-1292	-186	-3302	3	42
D:	1486.16	-1770	-304	-16468	-29	14	-86	-1292	-186	-3302	2	42
D:	1487.98	-1770	-304	-16468	-8	7	-47	-1292	-186	-3302	1	42
D:	1489.62	-1818	-289	-16327	-8	7	-47	-1292	-186	-3302	0	42
D:	1491.29	-1818	-289	-16327	-8	24	-76	-1292	-186	-3302	1	42
D:	1492.88	-1818	-283	-16327	-67	24	-76	-1292	-186	-3302	3	42
D:	1494.57	-1692	-283	-16327	-67	24	-76	-1292	-186	-3302	2	42
D:	1496.16	-1692	-283	-16327	-62	36	-75	-1292	-186	-3302	3	42
D:	1497.73	-1696	-365	-16452	-62	36	-75	-1292	-186	-3302	0	42
D:	1499.32	-1696	-365	-16452	-62	69	-147	-1292	-186	-3302	1	42
D:	1500.87	-1696	-400	-16335	-121	69	-147	-1281	-191	-3377	3	42
D:	1502.44	-1820	-400	-16335	-121	69	-147	-1281	-191	-3377	2	42
D:	1503.97	-1820	-400	-16335	-81	46	-171	-1281	-191	-3377	1	42
D:	1505.59	-1545	-382	-16386	-81	46	-171	-1281	-191	-3377	0	42
D:	1507.20	-1545	-382	-16386	-81	8	-142	-1281	-191	-3377	1	42
D:	1508.84	-1545	-382	-16386	-158	8	-142	-1281	-191	-3377	3	42
D:	1510.37	-1739	-321	-16395	-158	8	-142	-1281	-191	-3377	2	42
D:	1511.95	-1739	-321	-16395	-214	-54	-148	-1281	-191	-3377	1	42
D:	1513.54	-1761	-311	-16529	-214	-54	-148	-1281	-191	-3377	0	42
D:	1515.14	-1761	-311	-16529	-214	-30	-144	-1281	-191	-3377	1	42
D:	1516.73	-1761	-311	-16529	-188	-30	-144	-1281	-191	-3377	3	42
D:	1518.35	-1771	-411	-16399	-188	-30	-144	-1281	-191	-3377	2	42
D:	1520.00	-1771	-411	-16399	-67	50	-195	-1278	-191	-3303	1	42
D:	1521.61	-1756	-333	-16069	-67	50	-195	-1278	-191	-3303	0	42
D:	1523.28	-1756	-333	-16069	-67	13	-57	-1278	-191	-3303	1	42
D:	1524.84	-1756	-333	-16069	-85	13	-57	-1278	-191	-3303	3	42
D:	1526.44	-1446	-370	-16549	-85	13	-57	-1278	-191	-3303	2	42
D:	1528.04	-1446	-370	-16549	-148	-68	-149	-1278	-191	-3303	1	42
D:	1529.59	-1868	-281	-16335	-148	-68	-149	-1278	-191	-3303	0	42
D:	1531.12	-1868	-281	-16335	-148	-30	-97	-1278	-191	-3303	1	42
D:	1532.82	-1868	-336	-16514	-38	-30	-97	-1278	-191	-3303	3	42
D:	1534.53	-1519	-336	-16514	-38	-30	-97	-1278	-191	-3303	2	42
D:	1536.12	-1519	-336	-16514	6	58	-83	-1278	-191	-3303	3	42
D:	1537.71	-1575	-458	-16468	6	58	-83	-1278	-191	-3303	0	42
D:	1539.28	-1575	-458	-16468	6	56	-14	-1278	-191	-3303	1	42
D:	1541.10	-1771	-305	-16258	64	56	-14	-1284	-195	-3381	0	42
D:	1542.73	-1771	-305	-16258	64	56	-14	-1284	-195	-3381	2	42
D:	1544.29	-1771	-305	-16258	64	18	-102	-1284	-195	-3381	3	42
D:	1545.88	-1534	-387	-16609	64	18	-102	-1284	-195	-3381	0	42
D:	1547.44	-1534	-387	-16609	67	105	-134	-1284	-195	-3381	1	42
D:	1549.03	-1815	-372	-16377	67	105	-134	-1284	-195	-3381	0	42
D:	1550.86	-1815	-372	-16377	67	105	-134	-1284	-195	-3381	2	42
D:	1552.44	-1815	-372	-16377	-24	-1	-77	-1284	-195	-3381	3	42
D:	1553.99	-1531	-384	-16259	-24	-1	-77	-1284	-195	-3381	0	42
D:	1555.75	-1531	-384	-16259	35	54	-105	-1284	-195	-3381	1	42
D:	1557.45	-1628	-405	-16421	35	54	-105	-1284	-195	-3381	0	42
D:	1559.01	-1628	-405	-16421	35	115	-83	-1284	-195	-3381	1	42
D:	1560.87	-1628	-405	-16421	135	115	-83	-1287	-174	-3259	3	42
D:	1562.44	-1748	-348	-16206	135	115	-83	-1287	-174	-3259	2	42
D:	1564.00	-1748	-348	-16206	103	143	-135	-1287	-174	-3259	3	42
D:	1565.71	-1547	-391	-16535	103	143	-135	-1287	-174	-3259	0	42
D:	1567.26	-1547	-391	-16535	103	98	-62	-1287	-174	-3259	1	42
D:	1568.86	-1547	-391	-16535	72	98	-62	-1287	-174	-3259	3	42
D:	1570.44	-1752	-444	-16245	72	98	-62	-1287	-174	-3259	2	42
D:	1572.00	-1752	-444	-16245	125	123	-110	-1287	-174	-3259	1	42
D:	1573.62	-1784	-277	-16526	125	123	-110	-1287	-174	-3259	0	42
D:	1575.28	-1784	-277	-16526	125	43	-50	-1287	-174	-3259	1	42
D:	1576.81	-1784	-277	-16526	-36	43	-50	-1287	-174	-3259	3	42
D:	1578.44	-1537	-310	-16263	-36	43	-50	-1287	-174	-3259	2	42
D:	1580.03	-1537	-310	-16263	-82	34	-4	-1287	-174	-3259	1	42
D:	1581.62	-1749	-315	-16210	-82	34	-4	-1287	-174	-3259	0	42
D:	1583.46	-1749	-315	-16210	-101	93	-150	-1287	-174	-3259	1	42
D:	1585.01	-1569	-411	-16314	-101	93	-150	-1279	-187	-3330	3	42
D:	1586.59	-1569	-411	-16314	-101	93	-150	-1279	-187	-3330	2	42
D:	1588.16	-1569	-411	-16314	-52	17	-89	-1279	-187	-3330	3	42
D:	1589.83	-1816	-322	-16229	-52	17	-89	-1279	-187	-3330	0	42
D:	1591.44	-1816	-322	-16229	-49	-46	-132	-1279	-187	-3330	1	42
D:	1592.99	-1827	-328	-16288	-49	-46	-132	-1279	-187	-3330	3	42
D:	1594.62	-1827	-328	-16288	-49	-46	-132	-1279	-187	-3330	2	42
D:	1596.20	-1827	-328	-16288	-11	21	-94	-1279	-187	-3330	3	42
D:	1597.81	-1871	-267	-16559	-11	21	-94	-1279	-187	-3330	0	42
D:	1599.40	-1871	-267	-16559	29	23	-81	-1279	-187	-3330	1	42
D:	1600.94	-1704	-296	-16175	29	23	-81	-1279	-187	-3330	3	42
D:	1602.54	-1704	-296	-16175	29	23	-81	-1279	-187	-3330	2	42
D:	1604.13	-1704	-296	-16175	-134	239	-190	-1295	-156	-3358	3	42
D:	1605.73	-1615	-354	-16398	-134	239	-190	-1295	-156	-3358	0	42
D:	1607.28	-1615	-354	-16398	-134	-85	-87	-1295	-156	-3358	1	42
D:	1608.85	-1615	-354	-16398	-174	-85	-87	-1295	-156	-3358	3	42
D:	1610.44	-1810	-264	-16173	-174	-85	-87	-1295	-156	-3358	2	42
D:	1611.99	-1810	-264	-16173	-116	28	-22	-1295	-156	-3358	1	42
D:	1613.62	-1771	-347	-16441	-116	28	-22	-1295	-156	-3358	0	42
D:	1615.25	-1771	-347	-16441	-116	-18	-72	-1295	-156	-3358	1	42
D:	1616.82	-1771	-347	-16441	-145	-18	-72	-1295	-156	-3358	3	42
D:	1618.44	-1706	-325	-16536	-145	-18	-72	-1295	-156	-3358	2	42
D:	1620.04	-1706	-325	-16536	-108	71	-57	-1295	-156	-3358	1	42
D:	1621.62	-1688	-325	-16229	-108	71	-57	-1295	-156	-3358	0	42
D:	1623.14	-1688	-325	-16229	-108	-48	-28	-1295	-156	-3358	1	42
D:	1624.73	-1688	-325	-16229	-109	-48	-28	-1285	-176	-3240	3	42
D:	1626.46	-1478	-400	-16396	-109	-48	-28	-1285	-176	-3240	2	42
D:	1628.19	-1478	-400	-16396	-23	3	-8	-1285	-176	-3240	3	42
D:	1629.85	-1775	-343	-16428	-23	3	-8	-1285	-176	-3240	0	42
D:	1631.44	-1775	-343	-16428	-44	40	-97	-1285	-176	-3240	1	42
D:	1633.04	-1751	-291	-16172	-44	40	-97	-1285	-176	-3240	3	42
D:	1634.60	-1751	-291	-16172	-44	40	-97	-1285	-176	-3240	2	42
D:	1636.17	-1751	-291	-16172	-38	72	-68	-1285	-176	-3240	3	42
D:	1637.79	-1803	-416	-16314	-38	72	-68	-1285	-176	-3240	0	42
D:	1639.36	-1803	-416	-16314	-38	-71	-94	-1285	-176	-3240	1	42
D:	1640.93	-1739	-283	-16178	-38	-71	-94	-1285	-176	-3240	3	42
D:	1642.53	-1739	-283	-16178	-38	-71	-94	-1285	-176	-3240	2	42
D:	1644.16	-1739	-283	-16178	-118	-27	-157	-1280	-159	-3305	3	42
D:	1645.75	-1611	-354	-16515	-118	-27	-157	-1280	-159	-3305	0	42
D:	1647.36	-1611	-354	-16515	138	121	-63	-1280	-159	-3305	1	42
D:	1648.95	-1882	-309	-16251	4	121	-63	-1280	-159	-3305	3	42
D:	1650.53	-1882	-309	-16251	4	121	-63	-1280	-159	-3305	2	42
D:	1652.15	-1882	-309	-16251	-76	33	-135	-1280	-159	-3305	3	42
D:	1653.73	-1678	-326	-16485	-76	33	-135	-1280	-159	-3305	0	42
D:	1655.39	-1678	-326	-16485	-37	78	-218	-1280	-159	-3305	1	42
D:	1657.21	-1813	-261	-16134	-37	78	-218	-1280	-159	-3305	0	42
D:	1658.81	-1813	-261	-16134	-37	78	-218	-1280	-159	-3305	2	42
D:	1660.43	-1813	-261	-16134	27	47	-147	-1280	-159	-3305	3	42
D:	1661.96	-1699	-264	-16290	27	47	-147	-1280	-159	-3305	0	42
D:	1663.57	-1699	-264	-16290	-6	39	-47	-1280	-159	-3305	1	42
D:	1665.27	-1621	-406	-16849	-6	39	-47	-1275	-166	-3332	0	42
D:	1666.86	-1621	-406	-16849	-6	39	-47	-1275	-166	-3332	2	42
D:	1668.58	-1621	-406	-16849	-13	1	-116	-1275	-166	-3332	3	42
D:	1670.16	-1800	-252	-16203	-13	1	-116	-1275	-166	-3332	2	42
D:	1671.77	-1800	-252	-16203	19	247	-116	-1275	-166	-3332	1	42
D:	1673.34	-1839	-387	-16131	19	247	-116	-1275	-166	-3332	0	42
D:	1674.91	-1839	-387	-16131	19	247	-116	-1275	-166	-3332	2	42
D:	1676.53	-1839	-387	-16131	51	47	-137	-1275	-166	-3332	3	42
D:	1678.15	-2019	-395	-16368	51	47	-137	-1275	-166	-3332	2	42
D:	1679.73	-2019	-395	-16368	-34	78	-118	-1275	-166	-3332	1	42
D:	1681.31	-1832	-313	-16335	-34	78	-118	-1275	-166	-3332	0	42
D:	1682.88	-1832	-313	-16335	-34	78	-118	-1275	-166	-3332	2	42
D:	1684.53	-1832	-313	-16335	-15	-38	-122	-1279	-172	-3305	3	42
D:	1686.15	-1559	-332	-16342	-15	-38	-122	-1279	-172	-3305	2	42
D:	1687.71	-1559	-332	-16342	-73	22	-62	-1279	-172	-3305	1	42
D:	1689.46	-1723	-303	-16209	-73	22	-62	-1279	-172	-3305	0	42
D:	1691.11	-1723	-303	-16209	-73	-14	17	-1279	-172	-3305	1	42
D:	1692.71	-1723	-303	-16209	-77	-14	17	-1279	-172	-3305	3	42
D:	1694.26	-1698	-284	-16371	-77	-14	17	-1279	-172	-3305	2	42
D:	1695.81	-1698	-284	-16371	-6	65	-101	-1279	-172	-3305	1	42
D:	1697.44	-1800	-323	-16265	-6	65	-101	-1279	-172	-3305	0	42
D:	1699.01	-1800	-323	-16265	-6	42	-82	-1279	-172	-3305	2	42
D:	1700.61	-1800	-323	-16265	-57	42	-82	-1279	-172	-3305	3	42
D:	1702.19	-1830	-323	-16302	-57	42	-82	-1279	-172	-3305	2	42
D:	1703.84	-1830	-323	-16302	-146	-7	-172	-1279	-172	-3305	1	42
D:	1705.53	-1664	-401	-16650	-146	-7	-172	-1294	-199	-3382	0	42
D:	1707.16	-1664	-401	-16650	-146	-46	-148	-1294	-199	-3382	1	42
D:	1708.73	-1664	-401	-16650	-87	-46	-148	-1294	-199	-3382	3	42
D:	1710.31	-2014	-307	-16494	-87	-46	-148	-1294	-199	-3382	2	42
D:	1711.90	-2014	-307	-16494	-82	44	-68	-1294	-199	-3382	1	42
D:	1713.53	-1514	-326	-16297	-82	44	-68	-1294	-199	-3382	0	42
D:	1715.11	-1514	-326	-16297	-82	45	-68	-1294	-199	-3382	1	42
D:	1716.72	-1514	-326	-16297	-95	45	-68	-1294	-199	-3382	3	42
D:	1718.33	-1730	-316	-16424	-95	45	-68	-1294	-199	-3382	2	42
D:	1719.91	-1730	-316	-16424	-50	21	-75	-1294	-199	-3382	1	42
D:	1721.53	-1650	-363	-16335	-50	21	-75	-1294	-199	-3382	0	42
D:	1723.13	-1650	-363	-16335	-50	105	-110	-1294	-199	-3382	1	42
D:	1724.73	-1650	-363	-16335	-102	105	-110	-1294	-177	-3341	3	42
D:	1726.31	-1639	-367	-16462	-102	105	-110	-1294	-177	-3341	2	42
D:	1728.02	-1639	-367	-16462	-286	30	-60	-1289	-177	-3341	1	42
D:	1729.61	-1862	-363	-16377	-286	30	-60	-1289	-177	-3341	0	42
D:	1731.21	-1862	-363	-16377	-286	101	-35	-1289	-177	-3341	1	42
D:	1732.85	-1862	-363	-16377	-210	101	-35	-1289	-177	-3341	3	42
D:	1734.44	-1756	-355	-16388	-210	101	-35	-1289	-177	-3341	2	42
D:	1736.02	-1756	-355	-16388	-201	33	-73	-1289	-177	-3341	1	42
D:	1737.59	-1770	-346	-16277	-201	33	-73	-1289	-177	-3341	0	42
D:	1739.30	-1770	-346	-16277	-201	85	-137	-1289	-177	-3341	1	42
D:	1740.98	-1746	-226	-16315	-191	85	-137	-1289	-177	-3341	3	42
D:	1742.57	-1746	-226	-16315	-191	85	-137	-1289	-177	-3341	2	42
D:	1744.13	-1746	-226	-16315	-161	22	-29	-1289	-177	-3341	3	42
D:	1745.73	-1721	-381	-16345	-161	22	-29	-1289	-177	-3341	0	42
D:	1747.30	-1721	-381	-16345	-161	78	-45	-1289	-177	-3341	1	42
D:	1748.87	-1721	-327	-16183	-219	78	-45	-1280	-185	-3437	3	42
D:	1750.45	-1852	-327	-16183	-219	78	-45	-1280	-185	-3437	2	42
D:	1752.13	-1852	-327	-16183	-170	126	19	-1280	-185	-3437	3	42
D:	1753.86	-1591	-302	-16193	-170	126	19	-1280	-185	-3437	0	42
D:	1755.44	-1591	-302	-16193	-203	61	-197	-1280	-185	-3437	1	42
D:	1757.08	-1637	-306	-16184	-203	61	-197	-1280	-185	-3437	0	42
D:	1758.72	-1637	-306	-16184	-203	61	-197	-1280	-185	-3437	2	42
D:	1760.31	-1637	-306	-16184	-183	56	-48	-1280	-185	-3437	3	42
D:	1761.90	-1691	-291	-16331	-183	56	-48	-1280	-185	-3437	0	42
D:	1763.53	-1691	-291	-16331	-158	12	-114	-1280	-185	-3437	1	42
D:	1765.10	-1517	-257	-16265	-158	12	-114	-1280	-185	-3437	0	42
D:	1766.79	-1517	-257	-16265	-158	12	-114	-1280	-185	-3437	2	41
D:	1768.33	-1517	-257	-16265	-140	35	-47	-1286	-133	-3441	3	41
D:	1769.91	-1793	-263	-16365	-140	35	-47	-1286	-133	-3441	0	41
D:	1771.53	-1793	-263	-16365	-163	39	-24	-1286	-133	-3441	1	41
D:	1773.36	-1676	-301	-16522	-163	39	-24	-1286	-133	-3441	0	41
D:	1775.00	-1676	-301	-16522	-163	120	-10	-1286	-133	-3441	2	41
D:	1776.64	-1676	-301	-16522	-22	120	-10	-1286	-133	-3441	3	41
D:	1778.25	-1629	-293	-16534	-22	120	-10	-1286	-133	-3441	2	41
D:	1779.84	-1629	-293	-16534	-49	140	-118	-1286	-133	-3441	1	41
D:	1781.43	-1690	-324	-16454	-49	140	-118	-1286	-133	-3441	0	41
D:	1782.99	-1690	-324	-16454	-49	90	-31	-1286	-133	-3441	2	41
D:	1784.56	-1690	-324	-16454	53	90	-31	-1286	-133	-3441	3	41
D:	1786.15	-1578	-358	-16519	53	90	-31	-1286	-133	-3441	2	42
D:	1787.71	-1578	-358	-16519	92	135	-50	-1286	-133	-3441	1	42
D:	1789.31	-1833	-235	-16109	92	135	-50	-1291	-180	-3416	0	42
D:	1790.95	-1833	-235	-16109	92	135	-50	-1291	-180	-3416	2	42
D:	1792.54	-1833	-235	-16109	183	85	-131	-1291	-180	-3416	3	42
D:	1794.17	-1893	-286	-16347	183	85	-131	-1291	-180	-3416	2	42
D:	1795.98	-1893	-286	-16347	248	14	-145	-1291	-180	-3416	1	42
D:	1797.56	-1773	-481	-16190	248	14	-145	-1291	-180	-3416	0	42
D:	1799.16	-1773	-481	-16190	248	86	-56	-1291	-180	-3416	1	42
D:	1800.73	-1773	-481	-16190	66	86	-56	-1291	-180	-3416	3	42
D:	1802.30	-1768	-280	-16432	66	86	-56	-1291	-180	-3416	2	42
D:	1803.85	-1768	-280	-16432	97	59	-48	-1291	-180	-3416	1	42
D:	1805.59	-1678	-303	-16499	97	59	-48	-1291	-180	-3416	0	42
D:	1807.27	-1678	-303	-16499	97	70	-67	-1291	-180	-3416	1	42
D:	1808.84	-1678	-303	-16499	3	70	-67	-1293	-141	-3479	3	42
D:	1810.47	-1773	-283	-16227	3	70	-67	-1293	-141	-3479	2	42
D:	1812.03	-1773	-283	-16227	-18	18	-62	-1293	-141	-3479	1	42
D:	1813.67	-1579	-346	-16383	-18	18	-62	-1293	-141	-3479	0	42
D:	1815.32	-1579	-346	-16383	238	50	-20	-1293	-141	-3479	1	42
D:	1816.91	-1579	-418	-16624	90	50	-20	-1293	-141	-3479	3	42
D:	1818.53	-1629	-418	-16624	90	50	-20	-1293	-141	-3479	2	42
D:	1820.14	-1629	-418	-16624	39	33	-74	-1293	-141	-3479	3	42
D:	1821.73	-1723	-365	-16309	39	33	-74	-1293	-141	-3479	0	42
D:	1823.30	-1723	-365	-16309	39	94	-83	-1293	-141	-3479	1	42
D:	1824.88	-1723	-365	-16309	25	94	-83	-1293	-141	-3479	3	42
D:	1826.44	-1674	-334	-16461	25	94	-83	-1293	-141	-3479	2	42
D:	1828.01	-1674	-334	-16461	126	41	-39	-1289	-182	-3354	1	42
D:	1829.62	-1745	-373	-16484	126	41	-39	-1289	-182	-3354	0	42
D:	1831.27	-1745	-373	-16484	126	39	-44	-1289	-182	-3354	1	42
D:	1832.91	-1559	-399	-16396	-4	39	-44	-1289	-182	-3354	3	42
D:	1834.53	-1559	-399	-16396	-4	39	-44	-1289	-182	-3354	2	42
D:	1836.15	-1559	-399	-16396	-27	89	-66	-1289	-182	-3354	3	42
D:	1837.73	-1641	-310	-16570	-27	89	-66	-1289	-182	-3354	0	42
D:	1839.31	-1641	-310	-16570	229	-87	-25	-1289	-182	-3354	1	42
D:	1840.88	-1641	-310	-16471	63	-87	-25	-1289	-182	-3354	3	42
D:	1842.44	-1688	-310	-16471	63	-87	-25	-1289	-182	-3354	2	42
D:	1844.00	-1688	-310	-16471	-36	-2	-193	-1289	-182	-3354	1	42
D:	1845.61	-1525	-348	-16330	-36	-2	-193	-1289	-182	-3354	0	42
D:	1847.21	-1525	-348	-16330	-36	16	-122	-1289	-182	-3354	1	42
D:	1848.97	-1839	-279	-16364	-37	16	-122	-1280	-161	-3294	0	42
D:	1850.71	-1839	-279	-16364	-37	16	-122	-1280	-161	-3294	2	42
D:	1852.28	-1839	-279	-16364	-84	-47	-175	-1280	-161	-3294	3	42
D:	1853.92	-1774	-417	-16169	-84	-47	-175	-1280	-161	-3294	0	42
D:	1855.60	-1774	-417	-16169	-42	26	-98	-1280	-161	-3294	1	42
D:	1857.23	-1758	-363	-16709	-42	26	-98	-1280	-161	-3294	0	42
D:	1858.85	-1758	-363	-16709	-42	26	-98	-1280	-161	-3294	2	42
D:	1860.43	-1758	-363	-16709	70	134	-74	-1280	-161	-3294	3	42
D:	1861.96	-1754	-409	-16300	70	134	-74	-1280	-161	-3294	0	42
D:	1863.53	-1754	-409	-16300	32	126	-61	-1280	-161	-3294	1	42
D:	1865.11	-1584	-307	-16549	32	126	-61	-1280	-161	-3294	0	42
D:	1866.73	-1584	-307	-16549	32	126	-61	-1280	-161	-3294	2	42
D:	1868.29	-1584	-307	-16549	37	43	-105	-1291	-166	-3242	3	42
D:	1869.84	-1718	-390	-16440	37	43	-105	-1291	-166	-3242	0	42
D:	1871.43	-1718	-390	-16440	54	55	-54	-1291	-166	-3242	1	42
D:	1872.99	-1720	-305	-16271	54	55	-54	-1291	-166	-3242	3	42
D:	1874.62	-1720	-305	-16271	54	55	-54	-1291	-166	-3242	2	42
D:	1876.27	-1720	-305	-16271	27	61	-54	-1291	-166	-3242	3	42
D:	1877.83	-1719	-293	-16523	27	61	-54	-1291	-166	-3242	0	42
D:	1879.43	-1719	-293	-16523	-20	55	-99	-1291	-166	-3242	1	42
D:	1881.00	-1753	-271	-16271	-20	55	-99	-1291	-166	-3242	3	42
D:	1882.62	-1753	-271	-16271	-20	55	-99	-1291	-166	-3242	2	42
D:	1884.27	-1753	-271	-16271	86	116	-71	-1291	-166	-3242	3	42
D:	1885.85	-1520	-338	-16582	86	116	-71	-1291	-166	-3242	0	42
D:	1887.43	-1520	-338	-16582	-67	6	-165	-1291	-166	-3242	1	42
D:	1889.01	-1741	-322	-16219	-67	6	-165	-1291	-142	-3138	3	42
D:	1890.61	-1741	-322	-16219	-67	6	-165	-1291	-142	-3138	2	42
D:	1892.15	-1741	-322	-16219	-15	45	-125	-1291	-142	-3138	3	42
D:	1893.86	-1696	-333	-16169	-15	45	-125	-1291	-142	-3138	0	42
D:	1895.44	-1696	-333	-16169	-61	89	-93	-1291	-142	-3138	1	42
D:	1897.02	-1709	-369	-16167	-61	89	-93	-1291	-142	-3138	3	42
D:	1898.59	-1709	-369	-16167	-61	89	-93	-1291	-142	-3138	2	42
D:	1900.14	-1709	-369	-16167	9	65	-85	-1291	-142	-3138	3	42
D:	1901.73	-1771	-351	-16268	9	65	-85	-1291	-142	-3138	0	42
D:	1903.29	-1771	-351	-16268	9	20	-65	-1291	-142	-3138	1	42
D:	1904.85	-1771	-351	-16268	29	20	-65	-1291	-142	-3138	3	42
D:	1906.44	-1643	-368	-16649	29	20	-65	-1291	-142	-3138	2	42
D:	1908.01	-1643	-368	-16649	56	107	-156	-1291	-142	-3138	1	42
D:	1909.64	-1682	-359	-16315	56	107	-156	-1291	-142	-3138	0	42
D:	1911.33	-1682	-359	-16315	56	26	-121	-1291	-142	-3138	1	42
D:	1912.91	-1682	-379	-16292	54	26	-121	-1285	-168	-3324	3	42
D:	1914.55	-1708	-379	-16292	54	26	-121	-1285	-168	-3324	2	42
D:	1916.18	-1708	-379	-16292	68	16	-165	-1285	-168	-3324	3	42
D:	1917.82	-1518	-440	-16547	68	16	-165	-1285	-168	-3324	0	42
D:	1919.44	-1518	-440	-16547	48	37	-86	-1285	-168	-3324	1	42
D:	1921.03	-1752	-317	-16369	48	37	-86	-1285	-168	-3324	3	42
D:	1922.62	-1752	-317	-16369	48	37	-86	-1285	-168	-3324	2	42
D:	1924.21	-1752	-317	-16369	-30	63	-138	-1285	-168	-3324	3	42
D:	1925.84	-1654	-312	-16264	-30	63	-138	-1285	-168	-3324	0	42
D:	1927.43	-1654	-312	-16264	-5	112	-22	-1285	-168	-3324	1	42
D:	1929.00	-1609	-318	-15942	-5	112	-22	-1285	-168	-3324	3	42
D:	1930.62	-1609	-318	-15942	-5	112	-22	-1285	-168	-3324	2	42
D:	1932.26	-1609	-318	-15942	-36	126	-118	-1294	-157	-3482	3	42
D:	1933.85	-1715	-263	-16433	-36	126	-118	-1294	-157	-3482	0	42
D:	1935.43	-1715	-263	-16433	-12	101	-84	-1294	-157	-3482	1	42
D:	1937.01	-1623	-377	-16281	-12	101	-84	-1294	-157	-3482	3	42
D:	1938.60	-1623	-377	-16281	-12	101	-84	-1294	-157	-3482	2	42
D:	1940.21	-1623	-377	-16281	-46	161	-164	-1294	-157	-3482	3	42
D:	1941.82	-1698	-353	-16510	-46	161	-164	-1294	-157	-3482	0	42
D:	1943.43	-1698	-353	-16510	-74	-54	-161	-1294	-157	-3482	1	42
D:	1944.98	-1745	-266	-16359	-74	-54	-161	-1294	-157	-3482	3	42
D:	1946.61	-1745	-266	-16359	-74	-54	-161	-1294	-157	-3482	2	42
D:	1948.26	-1745	-266	-16359	-4	148	-70	-1294	-157	-3482	3	42
D:	1949.85	-1584	-326	-16558	-4	148	-70	-1294	-157	-3482	0	42
D:	1951.44	-1584	-326	-16558	226	116	-98	-1294	-157	-3482	1	42
D:	1953.01	-1704	-234	-16262	226	116	-98	-1298	-181	-3396	3	42
D:	1954.62	-1704	-234	-16262	226	116	-98	-1298	-181	-3396	2	42
D:	1956.27	-1704	-234	-16262	67	-28	-153	-1298	-181	-3396	3	42
D:	1957.81	-1778	-379	-16155	67	-28	-153	-1298	-181	-3396	0	42
D:	1959.36	-1778	-379	-16155	67	83	-207	-1298	-181	-3396	1	42
D:	1960.93	-1738	-315	-16482	19	83	-207	-1298	-181	-3396	3	42
D:	1962.53	-1738	-315	-16482	19	83	-207	-1298	-181	-3396	2	42
D:	1964.16	-1738	-315	-16482	87	-2	-63	-1298	-181	-3396	3	42
D:	1965.73	-1660	-275	-16396	87	-2	-63	-1298	-181	-3396	0	42
D:	1967.28	-1660	-275	-16396	87	47	-197	-1298	-181	-3396	1	42
D:	1968.85	-1660	-275	-16396	100	47	-197	-1298	-181	-3396	3	42
D:	1970.43	-1653	-391	-16319	100	47	-197	-1298	-181	-3396	2	42
D:	1972.02	-1653	-391	-16319	69	81	-134	-1288	-114	-3074	1	42
D:	1973.62	-1694	-368	-16477	69	81	-134	-1288	-114	-3074	0	42
D:	1975.21	-1694	-368	-16477	69	-10	-176	-1288	-114	-3074	1	42
D:	1976.81	-1694	-368	-16477	91	-10	-176	-1288	-114	-3074	3	42
D:	1978.37	-1750	-368	-16240	91	-10	-176	-1288	-114	-3074	2	42
D:	1979.96	-1750	-368	-16240	28	10	-79	-1288	-114	-3074	1	42
D:	1981.56	-1849	-375	-16602	28	10	-79	-1288	-114	-3074	0	42
D:	1983.13	-1849	-375	-16602	28	31	-150	-1288	-114	-3074	1	42
D:	1984.73	-1849	-375	-16602	28	31	-150	-1288	-114	-3074	3	42
D:	1986.29	-1733	-392	-16190	28	31	-150	-1288	-114	-3074	2	42
D:	1987.88	-1733	-392	-16190	-45	21	-87	-1288	-114	-3074	1	42
D:	1989.45	-1706	-442	-16406	-45	21	-87	-1288	-114	-3074	0	42
D:	1991.01	-1706	-442	-16406	-45	49	-64	-1288	-114	-3074	2	42
D:	1992.61	-1706	-442	-16406	-27	49	-64	-1295	-170	-3252	3	42
D:	1994.25	-1881	-345	-16628	-27	49	-64	-1295	-170	-3252	2	42
D:	1996.03	-1881	-345	-16628	-45	33	-71	-1295	-170	-3252	1	42
D:	1997.62	-1667	-454	-16281	-45	33	-71	-1295	-170	-3252	0	42
D:	1999.21	-1667	-454	-16281	-45	50	-68	-1295	-170	-3252	1	42
D:	2000.85	-1667	-454	-16281	-33	50	-68	-1295	-170	-3252	3	42
D:	2002.43	-1704	-373	-16125	-33	50	-68	-1295	-170	-3252	2	42
D:	2003.99	-1704	-373	-16125	-109	8	220	-1295	-170	-3252	1	42
D:	2005.64	-1753	-303	-16231	-109	8	220	-1295	-170	-3252	0	42
D:	2007.46	-1753	-303	-16231	-76	-38	-136	-1295	-170	-3252	1	42
D:	2009.07	-1589	-422	-16431	-76	-38	-136	-1295	-170	-3252	0	42
D:	2010.71	-1589	-422	-16431	-76	-38	-136	-1295	-170	-3252	2	42
D:	2012.30	-1589	-422	-16431	-77	22	-94	-1280	-155	-3121	3	42
D:	2013.91	-1642	-307	-16258	-77	22	-94	-1280	-155	-3121	0	42
D:	2015.53	-1642	-307	-16258	-143	234	-165	-1280	-155	-3121	1	42
D:	2017.13	-1758	-272	-16236	-143	234	-165	-1280	-155	-3121	0	42
D:	2018.71	-1758	-272	-16236	-143	234	-165	-1280	-155	-3121	2	42
D:	2020.33	-1758	-272	-16236	-100	50	-98	-1280	-155	-3121	3	42
D:	2021.94	-1652	-394	-16654	-100	50	-98	-1280	-155	-3121	0	42
D:	2023.53	-1652	-394	-16654	-143	-20	-90	-1280	-155	-3121	1	42
D:	2025.15	-1667	-353	-16164	-143	-20	-90	-1280	-155	-3121	0	42
D:	2026.73	-1667	-353	-16164	-143	-20	-90	-1280	-155	-3121	2	42
D:	2028.28	-1667	-353	-16164	-106	-51	-82	-1280	-155	-3121	3	42
D:	2029.85	-1631	-264	-16292	-106	-51	-82	-1280	-155	-3121	0	42
D:	2031.43	-1631	-264	-16292	-64	-90	-192	-1280	-155	-3121	1	42
D:	2033.01	-1741	-273	-16303	-64	-90	-192	-1292	-192	-3280	3	42
D:	2034.62	-1741	-273	-16303	-64	-90	-192	-1292	-192	-3280	2	42
D:	2036.25	-1741	-273	-16303	-84	-49	-18	-1292	-192	-3280	3	42
D:	2037.83	-1795	-255	-16262	-84	-49	-18	-1292	-192	-3280	0	42
D:	2039.43	-1795	-255	-16262	-90	-14	-88	-1292	-192	-3280	1	42
D:	2040.98	-1669	-270	-16335	-90	-14	-88	-1292	-192	-3280	3	42
D:	2042.59	-1669	-270	-16335	-90	-14	-88	-1292	-192	-3280	2	42
D:	2044.34	-1669	-270	-16335	-29	18	-73	-1292	-192	-3280	3	42
D:	2045.94	-1757	-304	-16282	-29	18	-73	-1292	-192	-3280	0	42
D:	2047.53	-1757	-304	-16282	6	41	-105	-1292	-192	-3280	1	42
D:	2049.16	-1764	-301	-16424	6	41	-105	-1292	-192	-3280	0	42
D:	2050.79	-1764	-301	-16424	6	41	-105	-1292	-192	-3280	2	42
D:	2052.32	-1764	-301	-16424	39	40	-217	-1292	-192	-3363	3	42
D:	2053.91	-1696	-315	-16342	39	40	-217	-1292	-192	-3363	0	42
D:	2055.62	-1696	-315	-16342	43	-17	-142	-1292	-192	-3363	1	42
D:	2057.28	-1575	-383	-16201	43	-17	-142	-1285	-130	-3363	0	42
D:	2058.80	-1575	-383	-16201	43	-17	-142	-1285	-130	-3363	2	42
D:	2060.43	-1575	-383	-16201	-102	-53	-131	-1285	-130	-3363	3	42
D:	2061.99	-1524	-369	-16625	-102	-53	-131	-1285	-130	-3363	0	42
D:	2063.56	-1524	-369	-16625	30	132	-67	-1285	-130	-3363	1	42
D:	2065.12	-1657	-323	-16106	30	132	-67	-1285	-130	-3363	0	42
D:	2066.73	-1657	-323	-16106	30	132	-67	-1285	-130	-3363	2	42
D:	2068.30	-1657	-323	-16106	82	102	-65	-1285	-130	-3363	3	42
D:	2069.88	-1543	-313	-16373	82	102	-65	-1285	-130	-3363	0	42
D:	2071.44	-1543	-313	-16373	27	7	-46	-1285	-130	-3363	1	42
D:	2073.01	-1687	-251	-16199	27	7	-46	-1285	-130	-3363	3	42
D:	2074.61	-1687	-251	-16199	27	7	-46	-1285	-130	-3363	2	42
D:	2076.26	-1687	-251	-16199	63	-20	-60	-1287	-170	-3306	3	42
D:	2077.83	-1545	-281	-16367	63	-20	-60	-1287	-170	-3306	0	42
D:	2079.43	-1545	-281	-16367	-34	61	-174	-1287	-170	-3306	1	42
D:	2081.00	-1700	-392	-16542	-34	61	-174	-1287	-170	-3306	3	42
D:	2082.59	-1700	-392	-16542	-34	61	-174	-1287	-170	-3306	2	42
D:	2084.16	-1700	-392	-16542	132	14	-104	-1287	-170	-3306	3	42
D:	2085.74	-1800	-361	-16253	132	14	-104	-1287	-170	-3306	0	42
D:	2087.31	-1800	-361	-16253	132	34	-103	-1287	-170	-3306	1	42
D:	2088.87	-1800	-361	-16253	48	34	-103	-1287	-170	-3306	3	42
D:	2090.45	-1786	-323	-16387	48	34	-103	-1287	-170	-3306	2	42
D:	2091.98	-1786	-323	-16387	-16	-53	-70	-1287	-170	-3306	1	42
D:	2093.73	-1784	-323	-16300	-16	-53	-70	-1287	-170	-3306	0	40
D:	2095.44	-1784	-323	-16300	-51	62	-100	-1287	-170	-3306	1	40
D:	2097.11	-1501	-401	-16459	-51	62	-100	-1277	-175	-3319	0	40
D:	2098.73	-1501	-401	-16459	-51	62	-100	-1277	-175	-3319	2	40
D:	2100.32	-1501	-401	-16459	-91	7	-122	-1277	-175	-3319	3	40
D:	2101.88	-1623	-450	-16269	-91	7	-122	-1277	-175	-3319	0	40
D:	2103.46	-1623	-450	-16269	-59	-40	-93	-1277	-175	-3319	1	40
D:	2105.02	-1680	-373	-16446	-59	-40	-93	-1277	-175	-3319	3	40
D:	2106.61	-1680	-373	-16446	-59	-40	-93	-1277	-175	-3319	2	40
D:	2108.20	-1680	-373	-16446	-60	32	-38	-1277	-175	-3319	3	40
D:	2109.84	-1662	-404	-16791	-60	32	-38	-1277	-175	-3319	0	40
D:	2111.43	-1662	-404	-16791	-98	21	-81	-1277	-175	-3319	1	40
D:	2113.01	-1752	-436	-16166	-98	21	-81	-1277	-175	-3319	3	40
D:	2114.61	-1752	-436	-16166	-98	21	-81	-1277	-175	-3319	2	42
D:	2116.25	-1752	-436	-16166	-38	66	-95	-1289	-179	-3318	3	42
D:	2117.86	-1546	-428	-16439	-38	66	-95	-1289	-179	-3318	0	42
D:	2119.45	-1546	-428	-16439	-88	-21	3	-1289	-179	-3318	1	42
D:	2121.03	-1731	-409	-16489	-88	-21	3	-1289	-179	-3318	3	42
D:	2122.61	-1731	-409	-16489	-88	-21	3	-1289	-179	-3318	2	42
D:	2124.28	-1731	-409	-16489	-145	64	-89	-1289	-179	-3318	3	42
D:	2125.84	-1723	-313	-16271	-145	64	-89	-1289	-179	-3318	0	42
D:	2127.49	-1723	-313	-16271	-60	70	-45	-1289	-179	-3318	1	42
D:	2129.04	-1640	-393	-16378	-60	70	-45	-1289	-179	-3318	3	42
D:	2130.59	-1640	-393	-16378	-60	70	-45	-1289	-179	-3318	2	42
D:	2132.16	-1640	-393	-16378	-85	7	-116	-1289	-179	-3318	3	42
D:	2133.72	-1769	-367	-16214	-85	7	-116	-1289	-179	-3318	0	42
D:	2135.36	-1769	-367	-16214	-85	22	-97	-1289	-179	-3318	1	42
D:	2136.93	-1747	-398	-16405	-198	22	-97	-1274	-170	-3099	3	42
D:	2138.54	-1747	-398	-16405	-198	22	-97	-1274	-170	-3099	2	42
D:	2140.14	-1747	-398	-16405	-140	-69	-130	-1274	-170	-3099	3	42
D:	2141.71	-1977	-276	-16353	-140	-69	-130	-1274	-170	-3099	0	42
D:	2143.28	-1977	-276	-16353	-140	29	-209	-1274	-170	-3099	1	42
D:	2145.06	-1674	-311	-16231	-205	29	-209	-1274	-170	-3099	3	42
D:	2146.60	-1674	-311	-16231	-205	29	-209	-1274	-170	-3099	2	42
D:	2148.20	-1674	-311	-16231	-222	50	-147	-1274	-170	-3099	3	42
D:	2149.75	-1688	-353	-16413	-222	50	-147	-1274	-170	-3099	0	42
D:	2151.30	-1688	-353	-16413	-222	39	-172	-1274	-170	-3099	1	42
D:	2152.91	-1780	-291	-16199	-197	39	-172	-1274	-170	-3099	3	42
D:	2154.53	-1780	-291	-16199	-197	39	-172	-1274	-170	-3099	2	42
D:	2156.35	-1780	-291	-16199	-196	8	-189	-1292	-183	-3338	3	42
D:	2157.95	-1698	-316	-16200	-196	8	-189	-1292	-183	-3338	2	41
D:	2159.76	-1698	-316	-16200	-224	31	-93	-1292	-183	-3338	1	41
D:	2161.34	-1775	-344	-16297	-224	31	-93	-1292	-183	-3338	0	41
D:	2162.90	-1775	-344	-16297	-224	31	-93	-1292	-183	-3338	2	41
D:	2164.53	-1775	-344	-16297	-183	-8	-154	-1292	-183	-3338	3	41
D:	2166.25	-1725	-242	-16544	-183	-8	-154	-1292	-183	-3338	2	41
D:	2167.83	-1725	-242	-16544	-165	59	-90	-1292	-183	-3338	1	41
D:	2169.43	-1556	-325	-16178	-165	59	-90	-1292	-183	-3338	0	41
D:	2171.06	-1556	-325	-16178	-165	-35	-141	-1292	-183	-3338	2	41
D:	2172.59	-1556	-325	-16178	-7	-35	-141	-1292	-183	-3338	3	41
D:	2174.20	-1787	-264	-16378	-7	-35	-141	-1292	-183	-3338	2	41
D:	2175.84	-1787	-264	-16378	30	72	-59	-1292	-183	-3338	1	41
D:	2177.43	-1582	-358	-16631	30	72	-59	-1279	-170	-3184	0	41
D:	2179.03	-1582	-358	-16631	30	5	-61	-1279	-170	-3184	2	42
D:	2180.61	-1582	-358	-16631	55	5	-61	-1279	-170	-3184	3	42
D:	2182.20	-1816	-255	-16223	55	5	-61	-1279	-170	-3184	2	42
D:	2183.78	-1816	-255	-16223	-16	91	-101	-1279	-170	-3184	1	42
D:	2185.36	-1778	-304	-16337	-16	91	-101	-1279	-170	-3184	0	42
D:	2186.93	-1778	-304	-16337	-16	91	-101	-1279	-170	-3184	2	42
D:	2188.54	-1778	-304	-16337	-40	54	-94	-1279	-170	-3184	3	42
D:	2190.13	-1742	-328	-16564	-40	54	-94	-1279	-170	-3184	2	42
D:	2191.73	-1742	-328	-16564	5	-23	-104	-1279	-170	-3184	1	42
D:	2193.28	-1637	-373	-16341	5	-23	-104	-1279	-170	-3184	0	42
D:	2194.82	-1637	-373	-16341	5	-23	-104	-1279	-170	-3184	2	42
D:	2196.54	-1637	-373	-16341	-44	-2	-156	-1284	-178	-3275	3	42
D:	2198.13	-1773	-328	-16205	-44	-2	-156	-1284	-178	-3275	2	42
D:	2199.71	-1773	-328	-16205	-46	-7	-102	-1284	-178	-3275	1	42
D:	2201.35	-1789	-427	-16235	-46	-7	-102	-1284	-178	-3275	0	42
D:	2202.95	-1789	-427	-16235	-46	36	-137	-1284	-178	-3275	2	42
D:	2204.56	-1789	-427	-16235	-12	36	-137	-1284	-178	-3275	3	42
D:	2206.21	-1733	-331	-16197	-12	36	-137	-1284	-178	-3275	2	42
D:	2207.81	-1733	-331	-16197	34	143	-58	-1284	-178	-3275	1	42
D:	2209.37	-1810	-324	-16311	34	143	-58	-1284	-178	-3275	0	42
D:	2211.27	-1810	-324	-16311	34	30	-99	-1284	-178	-3275	1	42
D:	2212.84	-1810	-324	-16311	-4	30	-99	-1284	-178	-3275	3	42
D:	2214.49	-1563	-403	-16382	-4	30	-99	-1284	-178	-3275	2	42
D:	2216.24	-1563	-403	-16382	-87	18	-86	-1284	-178	-3363	3	42
D:	2217.82	-1695	-314	-16431	-87	18	-86	-1284	-178	-3363	0	42
D:	2219.43	-1695	-314	-16431	-114	0	-73	-1284	-178	-3363	1	42
D:	2221.00	-1788	-230	-16029	-114	0	-73	-1286	-166	-3363	3	42
D:	2222.61	-1788	-230	-16029	-114	0	-73	-1286	-166	-3363	2	42
D:	2224.26	-1788	-230	-16029	-52	-253	-119	-1286	-166	-3363	3	42
D:	2225.87	-1593	-424	-16105	-52	-253	-119	-1286	-166	-3363	0	42
D:	2227.53	-1593	-424	-16105	-167	54	-118	-1286	-166	-3363	1	42
D:	2229.11	-1859	-253	-16523	-167	54	-118	-1286	-166	-3363	0	42
D:	2230.76	-1859	-253	-16523	-167	54	-118	-1286	-166	-3363	2	42
D:	2232.35	-1859	-253	-16523	-45	160	-144	-1286	-166	-3363	3	42
D:	2234.12	-1562	-361	-16456	-45	160	-144	-1286	-166	-3363	2	42
D:	2235.73	-1562	-361	-16456	-101	63	-183	-1286	-166	-3363	1	42
D:	2237.28	-1567	-453	-16207	-101	63	-183	-1286	-166	-3363	0	42
D:	2238.87	-1567	-453	-16207	-101	63	-183	-1286	-166	-3363	2	42
D:	2240.44	-1567	-453	-16207	-32	44	-28	-1289	-209	-3284	3	42
D:	2242.15	-1645	-311	-16122	-32	44	-28	-1289	-209	-3284	2	42
D:	2243.75	-1645	-311	-16122	-27	46	-42	-1289	-209	-3284	1	42
D:	2245.31	-1617	-301	-16490	-27	46	-42	-1289	-209	-3284	0	42
D:	2246.90	-1617	-301	-16490	-27	46	-42	-1289	-209	-3284	2	42
D:	2248.53	-1617	-301	-16490	-47	156	-129	-1289	-209	-3284	3	42
D:	2250.15	-1734	-373	-16420	-47	156	-129	-1289	-209	-3284	2	42
D:	2251.71	-1734	-373	-16420	15	21	-187	-1289	-209	-3284	1	42
D:	2253.30	-1693	-349	-16416	15	21	-187	-1289	-209	-3284	0	42
D:	2254.85	-1693	-349	-16416	15	21	-187	-1289	-209	-3284	2	42
D:	2256.43	-1693	-349	-16416	-107	35	-86	-1289	-209	-3284	3	42
D:	2258.00	-1638	-308	-16435	-107	35	-86	-1289	-209	-3284	0	41
D:	2259.64	-1638	-308	-16435	-54	92	-75	-1289	-209	-3284	1	41
D:	2261.20	-1810	-243	-16197	-54	92	-75	-1271	-158	-3467	0	41
D:	2262.81	-1810	-243	-16197	-54	92	-75	-1271	-158	-3467	2	41
D:	2264.36	-1810	-243	-16197	-80	-11	-113	-1271	-158	-3467	3	41
D:	2265.95	-1786	-353	-16151	-80	-11	-113	-1271	-158	-3467	0	41
D:	2267.53	-1786	-353	-16151	-29	127	-103	-1271	-158	-3467	1	41
D:	2269.13	-1861	-369	-16227	-29	127	-103	-1271	-158	-3467	0	41
D:	2270.73	-1861	-369	-16227	-29	127	-103	-1271	-158	-3467	2	41
D:	2272.33	-1861	-369	-16227	-30	121	-42	-1271	-158	-3467	3	41
D:	2274.08	-1560	-358	-16365	-30	121	-42	-1271	-158	-3467	2	41
D:	2275.84	-1560	-358	-16365	-2	57	-68	-1271	-158	-3467	1	41
D:	2277.43	-1636	-376	-16335	-2	57	-68	-1271	-158	-3467	0	41
D:	2279.13	-1636	-376	-16335	-2	81	-87	-1271	-158	-3467	1	42
D:	2280.83	-1636	-376	-16335	-88	81	-87	-1275	-183	-3315	3	42
D:	2282.43	-1781	-365	-16322	-88	81	-87	-1275	-183	-3315	2	42
D:	2284.02	-1781	-365	-16322	-54	4	-85	-1275	-183	-3315	1	42
D:	2285.61	-1528	-439	-16496	-54	4	-85	-1275	-183	-3315	0	42
D:	2287.25	-1528	-439	-16496	-54	103	-176	-1275	-183	-3315	1	42
D:	2288.83	-1528	-439	-16496	-2	103	-176	-1275	-183	-3315	3	42
D:	2290.43	-1745	-349	-16533	-2	103	-176	-1275	-183	-3315	2	42
D:	2292.01	-1745	-349	-16533	21	61	-79	-1275	-183	-3315	1	42
D:	2293.61	-1703	-393	-16373	21	61	-79	-1275	-183	-3315	0	42
D:	2295.27	-1703	-393	-16373	21	-76	-79	-1275	-183	-3315	1	42
D:	2296.84	-1703	-393	-16373	-72	-76	-79	-1275	-183	-3315	3	42
D:	2298.43	-1648	-455	-16343	-72	-76	-79	-1275	-183	-3315	2	42
D:	2299.96	-1648	-455	-16343	-45	-101	-116	-1276	-178	-3424	1	42
D:	2301.57	-1797	-359	-16033	-45	-101	-116	-1276	-178	-3424	0	42
D:	2303.20	-1797	-359	-16033	-45	-25	-131	-1276	-178	-3424	1	42
D:	2304.85	-1797	-359	-16033	-80	-25	-131	-1276	-178	-3424	3	42
D:	2306.43	-1571	-441	-16734	-80	-25	-131	-1276	-178	-3424	2	42
D:	2307.99	-1571	-441	-16734	-110	-54	-84	-1276	-178	-3424	1	42
D:	2309.53	-1714	-421	-16455	-110	-54	-84	-1276	-178	-3424	0	42
D:	2311.13	-1714	-421	-16455	-110	49	-122	-1276	-178	-3424	1	42
D:	2312.73	-1714	-421	-16455	-187	49	-122	-1276	-178	-3424	3	42
D:	2314.32	-1702	-365	-16208	-187	49	-122	-1276	-178	-3424	2	42
D:	2315.90	-1702	-365	-16208	-135	-6	-15	-1276	-178	-3424	1	42
D:	2317.54	-1692	-336	-16369	-135	-6	-15	-1276	-178	-3424	0	42
D:	2319.16	-1692	-336	-16369	-135	-3	-78	-1276	-178	-3424	1	42
D:	2320.74	-1692	-336	-16369	-211	-3	-78	-1282	-171	-3306	3	42
D:	2322.52	-1800	-345	-16382	-211	-3	-78	-1282	-171	-3306	2	42
D:	2324.13	-1800	-345	-16382	-155	-123	-105	-1282	-171	-3306	3	42
D:	2325.74	-1534	-393	-16357	-155	-123	-105	-1282	-171	-3306	0	42
D:	2327.28	-1534	-393	-16357	-155	-19	-101	-1282	-171	-3306	1	42
D:	2328.88	-1534	-414	-16522	-128	-19	-101	-1282	-171	-3306	3	42
D:	2330.53	-1652	-414	-16522	-128	-19	-101	-1282	-171	-3306	2	42
D:	2332.08	-1652	-414	-16522	-132	-33	-56	-1282	-171	-3306	3	42
D:	2333.73	-1719	-503	-16267	-132	-33	-56	-1282	-171	-3306	0	42
D:	2335.35	-1719	-503	-16267	-132	44	-48	-1282	-171	-3306	1	42
D:	2336.92	-1571	-305	-16408	-72	44	-48	-1282	-171	-3306	3	42
D:	2338.59	-1571	-305	-16408	-72	44	-48	-1282	-171	-3306	2	42
D:	2340.32	-1571	-305	-16408	-164	-20	-119	-1274	-173	-3562	3	42
D:	2341.89	-2034	-259	-16199	-164	-20	-119	-1274	-173	-3562	0	42
D:	2343.44	-2034	-259	-16199	3	-99	-19	-1274	-173	-3562	1	42
D:	2345.03	-1875	-300	-16229	3	-99	-19	-1274	-173	-3562	3	42
D:	2346.64	-1875	-300	-16229	3	-99	-19	-1274	-173	-3562	2	42
D:	2348.46	-1875	-300	-16229	-98	-93	-154	-1274	-173	-3562	3	42
D:	2350.09	-1778	-306	-16279	-98	-93	-154	-1274	-173	-3562	2	42
D:	2351.73	-1778	-306	-16279	-80	-82	-80	-1274	-173	-3562	1	42
D:	2353.31	-1706	-403	-16294	-80	-82	-80	-1274	-173	-3562	0	42
D:	2354.91	-1706	-403	-16294	-80	33	-70	-1274	-173	-3562	1	42
D:	2356.74	-1706	-403	-16294	-1	33	-70	-1274	-173	-3562	3	42
D:	2358.31	-1768	-299	-16779	-1	33	-70	-1274	-173	-3562	2	42
D:	2359.93	-1768	-299	-16779	34	254	-123	-1292	-158	-3374	1	42
D:	2361.59	-1797	-273	-16253	34	254	-123	-1292	-158	-3374	0	42
D:	2363.14	-1797	-273	-16253	34	170	-154	-1292	-158	-3374	1	42
D:	2364.74	-1797	-273	-16253	22	170	-154	-1292	-158	-3374	3	42
D:	2366.58	-1462	-470	-16321	22	170	-154	-1292	-158	-3374	2	42
D:	2368.18	-1462	-470	-16321	124	124	-93	-1292	-158	-3374	3	42
D:	2369.84	-1886	-234	-16344	124	124	-93	-1292	-158	-3374	0	42
D:	2371.43	-1886	-234	-16344	17	49	-84	-1292	-158	-3374	1	42
D:	2373.01	-1612	-326	-16273	17	49	-84	-1292	-158	-3374	3	42
D:	2374.61	-1612	-326	-16273	17	49	-84	-1292	-158	-3374	2	42
D:	2376.21	-1612	-326	-16273	35	-18	-114	-1292	-158	-3374	3	42
D:	2377.82	-1698	-355	-16451	35	-18	-114	-1292	-158	-3374	0	42
D:	2379.43	-1698	-355	-16451	-69	65	-42	-1292	-158	-3374	1	42
D:	2380.98	-1691	-351	-16207	-69	65	-42	-1292	-158	-3270	3	42
D:	2382.71	-1691	-351	-16207	-69	65	-42	-1292	-158	-3270	2	42
D:	2384.35	-1691	-351	-16207	-71	76	-121	-1280	-163	-3270	3	42
D:	2385.98	-1694	-379	-16458	-71	76	-121	-1280	-163	-3270	0	42
D:	2387.58	-1694	-379	-16458	-73	-65	-56	-1280	-163	-3270	1	42
D:	2389.16	-1752	-294	-16217	-73	-65	-56	-1280	-163	-3270	0	42
D:	2390.75	-1752	-294	-16217	-73	-65	-56	-1280	-163	-3270	2	42
D:	2392.32	-1752	-294	-16217	-140	-68	-164	-1280	-163	-3270	3	42
D:	2393.90	-1779	-345	-16250	-140	-68	-164	-1280	-163	-3270	0	42
D:	2395.53	-1779	-345	-16250	-130	-3	-153	-1280	-163	-3270	1	42
D:	2397.16	-1640	-454	-16396	-130	-3	-153	-1280	-163	-3270	0	42
D:	2399.00	-1640	-454	-16396	-130	93	-116	-1280	-163	-3270	2	42
D:	2400.61	-1640	-454	-16396	-36	93	-116	-1280	-163	-3270	3	42
D:	2402.28	-1721	-281	-16119	-36	93	-116	-1280	-163	-3270	2	41
D:	2403.83	-1721	-281	-16119	-93	51	-43	-1280	-163	-3270	1	41
D:	2405.44	-1979	-373	-16421	-93	51	-43	-1286	-174	-3311	0	41
D:	2407.03	-1979	-373	-16421	-93	142	-179	-1286	-174	-3311	2	41
D:	2408.67	-1979	-373	-16421	-25	142	-179	-1286	-174	-3311	3	41
D:	2410.43	-1790	-313	-16247	-25	142	-179	-1286	-174	-3311	2	41
D:	2412.00	-1790	-313	-16247	-39	39	-146	-1286	-174	-3311	1	41
D:	2413.61	-1555	-328	-16472	-39	39	-146	-1286	-174	-3311	0	41
D:	2415.20	-1555	-328	-16472	-39	83	-113	-1286	-174	-3311	1	41
D:	2416.83	-1555	-328	-16472	-39	83	-113	-1286	-174	-3311	3	41
D:	2418.43	-1692	-309	-16386	-39	83	-113	-1286	-174	-3311	2	41
D:	2419.98	-1692	-309	-16386	-61	55	-54	-1286	-174	-3311	1	41
D:	2421.69	-1719	-217	-16255	-61	55	-54	-1286	-174	-3311	0	43
D:	2423.43	-1719	-217	-16255	-15	22	-160	-1286	-174	-3311	1	43
D:	2425.01	-1611	-334	-16529	-15	22	-160	-1286	-175	-3279	3	43
D:	2426.59	-1611	-334	-16529	-15	22	-160	-1286	-175	-3279	2	43
D:	2428.19	-1611	-334	-16529	-53	94	-133	-1286	-175	-3279	3	43
D:	2429.82	-1776	-268	-16116	-53	94	-133	-1286	-175	-3279	0	43
D:	2431.43	-1776	-268	-16116	-10	122	-175	-1286	-175	-3279	1	43
D:	2432.98	-1815	-305	-16273	-10	122	-175	-1286	-175	-3279	3	43
D:	2434.59	-1815	-305	-16273	-10	122	-175	-1286	-175	-3279	2	43
D:	2436.14	-1815	-305	-16273	-254	91	-153	-1286	-175	-3279	3	43
D:	2437.71	-1840	-256	-16318	-254	91	-153	-1286	-175	-3279	0	43
D:	2439.25	-1840	-256	-16318	-254	115	-115	-1286	-175	-3279	1	43
D:	2440.84	-1840	-256	-16318	18	115	-115	-1286	-175	-3279	3	43
D:	2442.43	-1776	-375	-16237	18	115	-115	-1286	-175	-3279	2	43
D:	2443.99	-1776	-375	-16237	-67	-74	-234	-1291	-163	-3345	1	43
D:	2445.57	-1455	-420	-16491	-67	-74	-234	-1291	-163	-3345	0	43
D:	2447.14	-1455	-420	-16491	-67	122	-126	-1291	-163	-3345	1	43
D:	2448.94	-1828	-369	-16498	-53	122	-126	-1291	-163	-3345	3	43
D:	2450.53	-1828	-369	-16498	-53	122	-126	-1291	-163	-3345	2	43
D:	2452.14	-1828	-369	-16498	34	24	-79	-1291	-163	-3345	3	43
D:	2453.83	-1692	-373	-16407	34	24	-79	-1291	-163	-3345	0	43
D:	2455.53	-1692	-373	-16407	-116	-7	-86	-1291	-163	-3345	1	43
D:	2457.15	-1768	-361	-16396	-116	-7	-86	-1291	-163	-3345	0	43
D:	2458.74	-1768	-361	-16396	-116	-7	-86	-1291	-163	-3345	2	43
D:	2460.32	-1768	-361	-16396	-143	-21	-129	-1291	-163	-3345	3	43
D:	2461.93	-1751	-351	-16295	-143	-21	-129	-1291	-163	-3345	0	43
D:	2463.53	-1751	-351	-16295	-156	-30	-173	-1291	-163	-3345	1	43
D:	2465.15	-1561	-392	-16821	-156	-30	-173	-1291	-158	-3499	0	43
D:	2466.73	-1561	-392	-16821	-156	-30	-173	-1291	-158	-3499	2	42
D:	2468.31	-1561	-392	-16821	-122	-32	-156	-1291	-158	-3499	3	42
D:	2469.94	-1740	-267	-15933	-122	-32	-156	-1291	-158	-3499	0	42
D:	2471.60	-1740	-267	-15933	-129	-64	-114	-1291	-158	-3499	1	42
D:	2473.44	-1359	-398	-16539	-129	-64	-114	-1291	-158	-3499	0	42
D:	2475.01	-1359	-398	-16539	-129	-56	-203	-1291	-158	-3499	2	42
D:	2476.65	-1359	-398	-16539	-143	-56	-203	-1291	-158	-3499	3	42
D:	2478.43	-1753	-336	-16424	-143	-56	-203	-1291	-158	-3499	2	42
D:	2480.04	-1753	-336	-16424	-73	-30	-117	-1291	-158	-3499	1	42
D:	2481.63	-1714	-327	-16353	-73	-30	-117	-1291	-158	-3499	0	42
D:	2483.27	-1714	-327	-16353	-73	-30	-131	-1291	-158	-3499	1	42
D:	2484.84	-1714	-327	-16353	-71	-30	-131	-1287	-169	-3344	3	42
D:	2486.43	-1684	-299	-16400	-71	-30	-131	-1287	-169	-3344	2	42
D:	2488.00	-1684	-299	-16400	-148	-16	-146	-1287	-169	-3344	1	42
D:	2489.73	-1739	-239	-16141	-148	-16	-146	-1287	-169	-3344	0	42
D:	2491.44	-1739	-239	-16141	-4	-48	-161	-1287	-169	-3344	1	42
D:	2492.99	-1879	-336	-16368	-4	-48	-161	-1287	-169	-3344	3	42
D:	2494.61	-1879	-336	-16368	-4	-48	-161	-1287	-169	-3344	2	42
D:	2496.18	-1879	-336	-16368	-54	228	-146	-1287	-169	-3344	3	42
D:	2497.83	-1690	-400	-16333	-54	228	-146	-1287	-169	-3344	0	42
D:	2499.36	-1690	-400	-16333	-54	-5	-54	-1287	-169	-3344	1	42
D:	2500.96	-1787	-418	-16325	-71	-5	-54	-1287	-169	-3344	3	42
D:	2502.56	-1787	-418	-16325	-71	-5	-54	-1287	-169	-3344	2	42
D:	2504.15	-1787	-418	-16325	-23	13	-102	-1281	-180	-3304	3	42
D:	2505.86	-1606	-355	-16429	-23	13	-102	-1281	-180	-3304	0	43
D:	2507.45	-1606	-355	-16429	-12	30	-25	-1281	-180	-3304	1	43
D:	2509.03	-1721	-316	-16174	-12	30	-25	-1281	-180	-3304	3	43
D:	2510.61	-1721	-316	-16174	-12	30	-25	-1281	-180	-3304	2	43
D:	2512.20	-1721	-316	-16174	-26	34	-14	-1281	-180	-3304	3	43
D:	2513.83	-1506	-460	-16573	-26	34	-14	-1281	-180	-3304	0	43
D:	2515.43	-1506	-460	-16573	-21	-21	-151	-1281	-180	-3304	1	43
D:	2517.02	-1868	-434	-16546	-21	-21	-151	-1281	-180	-3304	3	43
D:	2518.59	-1868	-434	-16546	-21	-21	-151	-1281	-180	-3304	2	43
D:	2520.15	-1868	-434	-16546	27	14	-108	-1281	-180	-3304	3	43
D:	2521.83	-1628	-351	-16406	27	14	-108	-1281	-180	-3304	0	43
D:	2523.53	-1628	-351	-16406	-23	36	-124	-1281	-180	-3304	1	43
D:	2525.15	-1739	-323	-16390	-23	36	-124	-1282	-177	-3323	0	43
D:	2526.83	-1739	-323	-16390	-23	36	-124	-1282	-177	-3323	2	41
D:	2528.43	-1739	-323	-16390	-21	86	-31	-1282	-177	-3323	3	41
D:	2530.04	-1907	-230	-16134	-21	86	-31	-1282	-177	-3323	0	41
D:	2531.59	-1907	-230	-16134	-97	36	-47	-1282	-177	-3323	1	41
D:	2533.21	-1661	-309	-16447	-97	36	-47	-1282	-177	-3323	0	41
D:	2534.90	-1661	-309	-16447	-97	73	-97	-1282	-177	-3323	1	41
D:	2536.74	-1661	-309	-16447	-84	73	-97	-1282	-177	-3323	3	41
D:	2538.32	-1768	-337	-16428	-84	73	-97	-1282	-177	-3323	2	41
D:	2539.90	-1768	-337	-16428	-43	56	-67	-1282	-177	-3323	1	41
D:	2541.53	-1685	-244	-16363	-43	56	-67	-1282	-177	-3323	0	41
D:	2543.12	-1685	-244	-16363	-43	-21	-45	-1282	-177	-3323	1	41
D:	2544.73	-1685	-244	-16363	-138	-21	-45	-1282	-177	-3323	3	41
D:	2546.37	-1723	-343	-16405	-138	-21	-45	-1282	-177	-3323	2	42
D:	2547.93	-1723	-343	-16405	-87	-11	-76	-1282	-177	-3203	1	42
D:	2549.53	-1721	-259	-16254	-87	-11	-76	-1286	-162	-3203	0	42
D:	2551.14	-1721	-259	-16254	-87	-38	-57	-1286	-162	-3203	1	42
D:	2552.75	-1721	-259	-16254	-84	-38	-57	-1286	-162	-3203	3	42
D:	2554.31	-1571	-349	-16410	-84	-38	-57	-1286	-162	-3203	2	42
D:	2555.88	-1571	-349	-16410	-58	-24	-102	-1286	-162	-3203	1	42
D:	2557.49	-1747	-321	-16364	-58	-24	-102	-1286	-162	-3203	0	42
D:	2559.10	-1747	-321	-16364	-58	-17	-149	-1286	-162	-3203	1	42
D:	2560.78	-1747	-321	-16364	-201	-17	-149	-1286	-162	-3203	3	42
D:	2562.36	-1710	-375	-16422	-201	-17	-149	-1286	-162	-3203	2	42
D:	2563.95	-1710	-375	-16422	-180	7	-39	-1286	-162	-3203	1	42
D:	2565.56	-1655	-441	-16400	-180	7	-39	-1286	-162	-3203	0	42
D:	2567.13	-1655	-441	-16400	-180	-78	-126	-1286	-162	-3203	1	42
D:	2568.72	-1655	-441	-16400	-43	-78	-126	-1286	-157	-3284	3	42
D:	2570.28	-1800	-420	-16411	-43	-78	-126	-1286	-157	-3284	2	42
D:	2571.95	-1800	-420	-16411	-137	-90	-170	-1286	-157	-3284	1	42
D:	2573.62	-1700	-352	-16234	-137	-90	-170	-1286	-157	-3284	0	42
D:	2575.25	-1700	-352	-16234	-137	-15	-130	-1286	-157	-3284	1	42
D:	2576.80	-1700	-352	-16234	-131	-15	-130	-1286	-157	-3284	3	42
D:	2578.38	-1753	-476	-16213	-131	-15	-130	-1286	-157	-3284	2	42
D:	2579.95	-1753	-476	-16213	-164	49	-92	-1286	-157	-3284	1	42
D:	2581.53	-1618	-397	-16131	-164	49	-92	-1286	-157	-3284	0	42
D:	2583.15	-1618	-397	-16131	-164	-83	-140	-1286	-157	-3284	1	42
D:	2584.74	-1618	-397	-16131	-88	-83	-140	-1286	-157	-3284	3	42
D:	2586.32	-1585	-429	-16367	-88	-83	-140	-1286	-157	-3284	2	42
D:	2587.87	-1585	-429	-16367	-188	-72	-131	-1286	-157	-3284	1	42
D:	2589.53	-1750	-386	-16446	-188	-72	-131	-1274	-174	-3339	0	42
D:	2591.15	-1750	-386	-16446	-188	80	-91	-1274	-174	-3339	1	42
D:	2592.74	-1750	-386	-16446	-187	80	-91	-1274	-174	-3339	3	42
D:	2594.30	-1796	-262	-16169	-187	80	-91	-1274	-174	-3339	2	42
D:	2595.88	-1796	-262	-16169	-175	-104	-162	-1274	-174	-3339	1	42
D:	2597.52	-1768	-331	-16323	-175	-104	-162	-1274	-174	-3339	0	42
D:	2599.14	-1768	-331	-16323	-175	30	-78	-1274	-174	-3339	1	42
D:	2600.72	-1768	-331	-16323	-211	30	-78	-1274	-174	-3339	3	42
D:	2602.30	-1877	-277	-16209	-211	30	-78	-1274	-174	-3339	2	42
D:	2603.88	-1877	-277	-16209	-142	36	-72	-1274	-174	-3339	1	42
D:	2605.44	-1766	-157	-16352	-142	36	-72	-1274	-174	-3339	0	42
D:	2607.00	-1766	-157	-16352	-142	24	-35	-1274	-174	-3339	2	42
D:	2608.61	-1766	-157	-16352	-243	24	-35	-1289	-153	-3387	3	42
D:	2610.20	-1941	-166	-16688	-243	24	-35	-1289	-153	-3387	2	42
D:	2611.82	-1941	-166	-16688	-212	84	-66	-1289	-153	-3387	1	42
D:	2613.43	-1860	-277	-16462	-212	84	-66	-1289	-153	-3387	0	42
D:	2615.00	-1860	-277	-16462	-212	-22	-68	-1289	-153	-3387	2	42
D:	2616.63	-1860	-277	-16462	-132	-22	-68	-1289	-153	-3387	3	42
D:	2618.32	-1566	-312	-16559	-132	-22	-68	-1289	-153	-3387	2	42
D:	2619.90	-1566	-312	-16559	-124	-32	-15	-1289	-153	-3387	1	42
D:	2621.58	-1747	-321	-16189	-124	-32	-15	-1289	-153	-3387	0	42
D:	2623.43	-1747	-321	-16189	-216	42	-67	-1289	-153	-3387	1	42
D:	2625.03	-1627	-219	-16337	-216	42	-67	-1289	-153	-3387	3	42
D:	2626.58	-1627	-219	-16337	-216	42	-67	-1289	-153	-3387	2	42
D:	2628.20	-1627	-219	-16337	-197	-28	-72	-1297	-175	-3412	3	42
D:	2629.84	-1559	-333	-16272	-197	-28	-72	-1297	-175	-3412	0	42
D:	2631.43	-1559	-333	-16272	-164	-34	-56	-1297	-175	-3412	1	42
D:	2633.01	-1546	-509	-16386	-164	-34	-56	-1297	-175	-3412	3	42
D:	2634.61	-1546	-509	-16386	-164	-34	-56	-1297	-175	-3412	2	42
D:	2636.16	-1546	-509	-16386	-103	28	-51	-1297	-175	-3412	3	42
D:	2637.71	-1530	-317	-16463	-103	28	-51	-1297	-175	-3412	0	42
D:	2639.28	-1530	-317	-16463	-103	24	-141	-1297	-175	-3412	1	42
D:	2640.85	-1530	-317	-16463	-83	24	-141	-1297	-175	-3412	3	42
D:	2642.43	-1780	-218	-16254	-83	24	-141	-1297	-175	-3412	2	42
D:	2644.00	-1780	-218	-16254	-37	71	-173	-1297	-175	-3412	1	42
D:	2645.61	-1778	-344	-16311	-37	71	-173	-1297	-175	-3412	0	42
D:	2647.21	-1778	-344	-16311	-37	18	-59	-1297	-175	-3412	1	42
D:	2648.86	-1778	-365	-16466	-28	18	-59	-1285	-155	-3269	3	42
D:	2650.43	-1661	-365	-16466	-28	18	-59	-1285	-155	-3269	2	42
D:	2652.00	-1661	-365	-16466	-109	15	-91	-1285	-155	-3269	1	42
D:	2653.72	-1911	-350	-16401	-109	15	-91	-1285	-155	-3269	0	42
D:	2655.53	-1911	-350	-16401	2	92	-122	-1285	-155	-3269	1	42
D:	2657.14	-1707	-450	-16626	2	92	-122	-1285	-155	-3269	0	42
D:	2658.72	-1707	-450	-16626	2	92	-122	-1285	-155	-3269	2	42
D:	2660.28	-1707	-450	-16626	-99	-16	41	-1285	-155	-3269	3	42
D:	2661.87	-1764	-279	-16130	-99	-16	41	-1285	-155	-3269	0	42
D:	2663.53	-1764	-279	-16130	-59	-64	-107	-1285	-155	-3269	1	42
D:	2665.20	-1766	-353	-16432	-59	-64	-107	-1285	-155	-3269	0	42
D:	2666.84	-1766	-353	-16432	-59	-64	-107	-1285	-155	-3269	2	42
D:	2668.43	-1766	-353	-16432	-62	-1	-19	-1289	-173	-3417	3	42
D:	2670.00	-1627	-328	-16551	-62	-1	-19	-1289	-173	-3417	0	42
D:	2671.69	-1627	-328	-16551	-191	-17	-108	-1289	-173	-3417	1	42
D:	2673.43	-1739	-184	-16273	-191	-17	-108	-1289	-173	-3417	0	42
D:	2675.00	-1739	-184	-16273	-191	-39	-108	-1289	-173	-3417	1	42
D:	2676.85	-1739	-184	-16273	-75	-39	-108	-1289	-173	-3417	3	42
D:	2678.43	-1510	-245	-16599	-75	-39	-108	-1289	-173	-3417	2	42
D:	2679.98	-1510	-245	-16599	-76	0	-102	-1289	-173	-3417	1	42
D:	2681.59	-1721	-238	-16373	-76	0	-102	-1289	-173	-3417	0	42
D:	2683.16	-1721	-238	-16373	-76	-77	-18	-1289	-173	-3417	1	42
D:	2684.84	-1721	-238	-16373	-22	-77	-18	-1289	-173	-3417	3	42
D:	2686.43	-1657	-223	-16397	-22	-77	-18	-1289	-173	-3417	2	42
D:	2688.03	-1657	-223	-16397	-27	45	-135	-1295	-151	-3276	3	42
D:	2689.92	-1863	-325	-16152	-27	45	-135	-1295	-151	-3276	0	42
D:	2691.53	-1863	-325	-16152	-40	33	-42	-1295	-151	-3276	1	42
D:	2693.08	-1781	-307	-16239	-40	33	-42	-1295	-151	-3276	0	42
D:	2694.73	-1781	-307	-16239	-40	33	-42	-1295	-151	-3276	2	42
D:	2696.31	-1781	-307	-16239	-43	67	-36	-1295	-151	-3276	3	42
D:	2697.87	-1620	-380	-16490	-43	67	-36	-1295	-151	-3276	0	42
D:	2699.43	-1620	-380	-16490	-39	98	-81	-1295	-151	-3276	1	42
D:	2701.00	-1919	-332	-16231	-39	98	-81	-1295	-151	-3276	3	42
D:	2702.61	-1919	-332	-16231	-39	98	-81	-1295	-151	-3276	2	42
D:	2704.45	-1919	-332	-16231	22	94	-32	-1295	-151	-3276	3	42
D:	2706.23	-1752	-429	-16297	22	94	-32	-1295	-151	-3276	2	42
D:	2707.82	-1752	-429	-16297	3	81	-28	-1295	-151	-3276	1	42
D:	2709.43	-1621	-299	-16264	3	81	-28	-1295	-151	-3276	0	42
D:	2711.00	-1621	-299	-16264	3	52	-47	-1295	-151	-3276	1	42
D:	2712.94	-1715	-181	-16113	-20	52	-47	-1286	-182	-3183	3	42
D:	2714.68	-1715	-181	-16113	-20	52	-47	-1286	-182	-3183	2	42
D:	2716.29	-1715	-181	-16113	30	111	-137	-1286	-182	-3183	3	42
D:	2717.87	-1638	-338	-16319	30	111	-137	-1286	-182	-3183	0	42
D:	2719.44	-1638	-338	-16319	-6	52	-86	-1286	-182	-3183	1	42
D:	2721.12	-1699	-277	-16328	-6	52	-86	-1286	-182	-3183	0	42
D:	2722.81	-1699	-277	-16328	-6	52	-86	-1286	-182	-3183	2	42
D:	2724.43	-1699	-277	-16328	123	65	-96	-1286	-182	-3183	3	42
D:	2726.00	-1719	-239	-16711	123	65	-96	-1286	-182	-3183	0	42
D:	2727.62	-1719	-239	-16711	122	100	-98	-1286	-182	-3183	1	42
D:	2729.20	-1698	-327	-16181	122	100	-98	-1286	-182	-3183	0	42
D:	2730.83	-1698	-327	-16181	122	100	-98	-1286	-182	-3183	2	41
D:	2732.43	-1698	-327	-16181	87	63	-101	-1293	-174	-3328	3	41
D:	2734.04	-1876	-290	-16144	87	63	-101	-1293	-174	-3328	0	41
D:	2735.61	-1876	-290	-16144	97	10	-180	-1293	-174	-3328	1	41
D:	2737.28	-1613	-336	-16459	97	10	-180	-1293	-174	-3328	0	41
D:	2738.85	-1613	-336	-16459	97	10	-180	-1293	-174	-3328	2	41
D:	2740.43	-1613	-336	-16459	105	90	-126	-1293	-174	-3328	3	41
D:	2742.00	-1736	-368	-16592	105	90	-126	-1293	-174	-3328	0	41
D:	2743.61	-1736	-368	-16592	-14	88	-100	-1293	-174	-3328	1	41
D:	2745.20	-1764	-275	-16495	-14	88	-100	-1293	-174	-3328	0	41
D:	2746.83	-1764	-275	-16495	-14	88	-100	-1293	-174	-3328	2	41
D:	2748.44	-1764	-275	-16495	23	50	-128	-1293	-174	-3328	3	41
D:	2750.00	-1727	-351	-16590	23	50	-128	-1293	-174	-3328	0	41
D:	2751.62	-1727	-351	-16590	43	81	-72	-1293	-174	-3328	1	41
D:	2753.25	-1735	-367	-16424	43	81	-72	-1284	-171	-3250	0	41
D:	2754.80	-1735	-367	-16424	43	81	-72	-1284	-171	-3250	2	41
D:	2756.47	-1735	-367	-16424	86	38	-126	-1284	-171	-3250	3	41
D:	2758.03	-1681	-381	-16439	86	38	-126	-1284	-171	-3250	0	41
D:	2759.58	-1681	-381	-16439	27	-33	-122	-1284	-171	-3250	1	41
D:	2761.12	-1623	-354	-16265	27	-33	-122	-1284	-171	-3250	0	41
D:	2762.72	-1623	-354	-16265	27	-33	-122	-1284	-171	-3250	2	41
D:	2764.32	-1623	-354	-16265	60	24	-37	-1284	-171	-3250	3	41
D:	2765.90	-1774	-488	-16344	60	24	-37	-1284	-171	-3250	0	41
D:	2767.53	-1774	-488	-16344	45	30	-52	-1284	-171	-3250	1	41
D:	2769.11	-1667	-381	-16232	45	30	-52	-1284	-171	-3250	0	41
D:	2770.72	-1667	-381	-16232	45	30	-52	-1284	-171	-3250	2	42
D:	2772.30	-1667	-381	-16232	105	99	-64	-1289	-144	-3315	3	42
D:	2773.92	-1863	-257	-16238	105	99	-64	-1289	-144	-3315	2	42
D:	2775.79	-1863	-257	-16238	35	66	-125	-1289	-144	-3315	1	42
D:	2777.43	-1583	-357	-16088	35	66	-125	-1289	-144	-3315	0	42
D:	2778.99	-1583	-357	-16088	35	-50	-151	-1289	-144	-3315	2	42
D:	2780.59	-1583	-357	-16088	-15	-50	-151	-1289	-144	-3315	3	42
D:	2782.13	-1816	-281	-16261	-15	-50	-151	-1289	-144	-3315	2	42
D:	2783.71	-1816	-281	-16261	46	1	-156	-1289	-144	-3315	1	42
D:	2785.28	-1782	-326	-16262	46	1	-156	-1289	-144	-3315	0	42
D:	2786.82	-1782	-326	-16262	46	1	-156	-1289	-144	-3315	2	42
D:	2788.37	-1782	-326	-16262	3	-1	-116	-1289	-144	-3315	3	42
D:	2789.93	-1773	-344	-16459	3	-1	-116	-1289	-144	-3315	0	42
D:	2791.53	-1773	-344	-16459	54	2	-203	-1289	-144	-3315	1	42
D:	2793.14	-1688	-133	-15974	54	2	-203	-1287	-177	-3194	0	42
D:	2794.73	-1688	-133	-15974	54	2	-203	-1287	-177	-3194	2	42
D:	2796.29	-1688	-133	-15974	93	2	-148	-1287	-177	-3194	3	42
D:	2797.86	-1704	-269	-16461	93	2	-148	-1287	-177	-3194	0	42
D:	2799.43	-1704	-269	-16461	24	62	-80	-1287	-177	-3194	1	42
D:	2800.97	-1541	-336	-16181	24	62	-80	-1287	-177	-3194	3	42
D:	2802.61	-1541	-336	-16181	24	62	-80	-1287	-177	-3194	2	42
D:	2804.16	-1541	-336	-16181	19	64	-109	-1287	-177	-3194	3	42
D:	2805.74	-1733	-307	-16313	19	64	-109	-1287	-177	-3194	0	42
D:	2807.28	-1733	-307	-16313	19	36	-24	-1287	-177	-3194	1	42
D:	2808.83	-1733	-307	-16313	-3	36	-24	-1287	-177	-3194	3	42
D:	2810.44	-1501	-367	-16611	-3	36	-24	-1287	-177	-3194	2	42
D:	2811.98	-1501	-367	-16611	22	65	-175	-1291	-172	-3233	1	42
D:	2813.62	-1713	-353	-15975	22	65	-175	-1291	-172	-3233	0	41
D:	2815.16	-1713	-353	-15975	22	32	-94	-1291	-172	-3233	1	41
D:	2816.76	-1713	-353	-15975	-2	32	-94	-1291	-172	-3233	3	41
D:	2818.31	-1678	-383	-16123	-2	32	-94	-1291	-172	-3233	2	41
D:	2819.89	-1678	-383	-16123	-74	47	-153	-1291	-172	-3233	1	41
D:	2821.62	-1696	-357	-16632	-74	47	-153	-1291	-172	-3233	0	41
D:	2823.31	-1696	-357	-16632	-74	26	-61	-1291	-172	-3233	1	41
D:	2824.90	-1893	-281	-16221	-13	26	-61	-1291	-172	-3233	3	41
D:	2826.53	-1893	-281	-16221	-13	26	-61	-1291	-172	-3233	2	41
D:	2828.16	-1893	-281	-16221	-98	-46	-141	-1291	-172	-3233	3	41
D:	2829.75	-1776	-359	-16710	-98	-46	-141	-1291	-172	-3233	0	41
D:	2831.54	-1776	-359	-16710	-192	17	-118	-1291	-172	-3233	1	41
D:	2833.14	-1648	-305	-16206	-192	17	-118	-1290	-191	-3304	0	41
D:	2834.73	-1648	-305	-16206	-192	17	-118	-1290	-191	-3304	2	41
D:	2836.31	-1648	-305	-16206	-31	82	-68	-1290	-191	-3304	3	41
D:	2837.91	-1558	-283	-16251	-31	82	-68	-1290	-191	-3304	0	41
D:	2839.53	-1558	-283	-16251	-20	241	-86	-1290	-191	-3304	1	41
D:	2841.11	-1607	-211	-16637	-20	241	-86	-1290	-191	-3304	0	41
D:	2842.73	-1607	-211	-16637	-20	241	-86	-1290	-191	-3304	2	41
D:	2844.31	-1607	-211	-16637	31	36	-116	-1290	-191	-3304	3	41
D:	2845.87	-1808	-179	-16160	31	36	-116	-1290	-191	-3304	0	41
D:	2847.53	-1808	-179	-16160	45	65	-33	-1290	-191	-3304	1	41
D:	2849.07	-1412	-334	-16441	45	65	-33	-1290	-191	-3304	0	41
D:	2850.74	-1412	-334	-16441	45	65	-33	-1290	-191	-3304	2	41
D:	2852.45	-1412	-334	-16441	80	38	-66	-1290	-160	-3393	3	41
D:	2854.18	-1616	-493	-16250	80	38	-66	-1290	-160	-3393	2	42
D:	2855.88	-1616	-493	-16250	195	72	-88	-1290	-160	-3393	1	42
D:	2857.53	-1721	-386	-16278	195	72	-88	-1287	-160	-3393	0	42
D:	2859.28	-1721	-386	-16278	195	8	-84	-1287	-160	-3393	1	42
D:	2860.85	-1721	-386	-16278	108	8	-84	-1287	-160	-3393	3	42
D:	2862.49	-1540	-493	-16625	108	8	-84	-1287	-160	-3393	2	42
D:	2864.35	-1540	-493	-16625	28	106	-172	-1287	-160	-3393	3	42
D:	2865.98	-1866	-373	-16175	28	106	-172	-1287	-160	-3393	0	42
D:	2867.56	-1866	-373	-16175	51	-4	-109	-1287	-160	-3393	1	42
D:	2869.15	-1926	-349	-16269	51	-4	-109	-1287	-160	-3393	0	42
D:	2870.75	-1926	-349	-16269	51	-4	-109	-1287	-160	-3393	2	42
D:	2872.29	-1926	-349	-16269	104	63	-120	-1287	-160	-3393	3	42
D:	2873.86	-1803	-398	-16263	104	63	-120	-1287	-160	-3393	0	42
D:	2875.43	-1803	-398	-16263	39	14	-54	-1287	-160	-3393	1	42
D:	2877.14	-1711	-329	-16178	39	14	-54	-1291	-180	-3230	0	42
D:	2878.73	-1711	-329	-16178	39	14	-54	-1291	-180	-3230	2	42
D:	2880.23	-1711	-329	-16178	11	-32	-122	-1291	-180	-3230	3	42
D:	2881.80	-1667	-511	-16510	11	-32	-122	-1291	-180	-3230	0	42
D:	2883.36	-1667	-511	-16510	11	21	-28	-1291	-180	-3230	1	42
D:	2884.98	-1713	-371	-16157	61	21	-28	-1291	-180	-3230	3	42
D:	2886.56	-1713	-371	-16157	61	21	-28	-1291	-180	-3230	2	42
D:	2888.13	-1713	-371	-16157	-36	36	-62	-1291	-180	-3230	3	42
D:	2889.73	-1639	-345	-16302	-36	36	-62	-1291	-180	-3230	0	42
D:	2891.29	-1639	-345	-16302	-36	42	-117	-1291	-180	-3230	1	42
D:	2892.85	-1639	-345	-16302	-43	42	-117	-1291	-180	-3230	3	42
D:	2894.43	-1652	-306	-16308	-43	42	-117	-1291	-180	-3230	2	42
D:	2895.99	-1652	-306	-16308	-53	-98	-80	-1285	-170	-3307	1	42
D:	2897.61	-1678	-255	-16229	-53	-98	-80	-1285	-170	-3307	0	42
D:	2899.21	-1678	-255	-16229	-53	34	-179	-1285	-170	-3307	1	42
D:	2900.99	-1711	-251	-16277	-55	34	-179	-1285	-170	-3307	3	42
D:	2902.61	-1711	-251	-16277	-55	34	-179	-1285	-170	-3307	2	42
D:	2904.13	-1711	-251	-16277	-84	-10	-108	-1285	-170	-3307	3	42
D:	2905.72	-1819	-229	-16381	-84	-10	-108	-1285	-170	-3307	0	42
D:	2907.30	-1819	-229	-16381	-84	-47	-42	-1285	-170	-3307	1	42
D:	2908.87	-1819	-218	-16245	-66	-47	-42	-1285	-170	-3307	3	42
D:	2910.49	-1841	-218	-16245	-66	-47	-42	-1285	-170	-3307	2	42
D:	2912.08	-1841	-218	-16245	37	60	-117	-1285	-170	-3307	3	42
D:	2913.71	-1718	-261	-16543	37	60	-117	-1285	-170	-3307	0	42
D:	2915.25	-1718	-261	-16543	37	75	-111	-1285	-170	-3307	1	42
D:	2916.84	-1718	-261	-16543	-248	75	-111	-1284	-183	-3299	3	42
D:	2918.44	-1866	-245	-16074	-248	75	-111	-1284	-183	-3299	2	42
D:	2920.00	-1866	-245	-16074	-15	78	-43	-1284	-183	-3299	1	42
D:	2921.69	-1831	-478	-16388	-15	78	-43	-1284	-183	-3299	0	42
D:	2923.45	-1831	-478	-16388	76	42	-27	-1284	-183	-3299	1	42
D:	2925.01	-1782	-408	-16227	76	42	-27	-1284	-183	-3299	3	42
D:	2926.61	-1782	-408	-16227	76	42	-27	-1284	-183	-3299	2	42
D:	2928.12	-1782	-408	-16227	32	67	9	-1284	-183	-3299	3	42
D:	2929.74	-1869	-543	-16160	32	67	9	-1284	-183	-3299	0	42
D:	2931.29	-1869	-543	-16160	-224	109	-89	-1284	-183	-3299	1	42
D:	2932.87	-1869	-543	-16160	-11	109	-89	-1284	-183	-3299	3	42
D:	2934.44	-1726	-533	-16468	-11	109	-89	-1284	-183	-3299	2	42
D:	2936.00	-1726	-533	-16468	66	-13	-74	-1288	-163	-3305	1	42
D:	2937.59	-1745	-513	-16255	66	-13	-74	-1288	-163	-3305	0	42
D:	2939.14	-1745	-513	-16255	66	80	-48	-1288	-163	-3305	1	42
D:	2940.81	-1745	-402	-16480	111	80	-48	-1288	-163	-3305	3	42
D:	2942.43	-1543	-402	-16480	111	80	-48	-1288	-163	-3305	2	42
D:	2944.03	-1543	-402	-16480	98	111	-106	-1288	-163	-3305	1	42
D:	2945.61	-1749	-273	-16406	98	111	-106	-1288	-163	-3305	0	42
D:	2947.18	-1749	-273	-16406	98	122	-99	-1288	-163	-3305	1	42
D:	2948.83	-1749	-273	-16406	11	122	-99	-1288	-163	-3305	3	42
D:	2950.43	-1677	-249	-16297	11	122	-99	-1288	-163	-3305	2	42
D:	2951.98	-1677	-249	-16297	59	53	-178	-1288	-163	-3305	1	42
D:	2953.58	-1766	-212	-16528	59	53	-178	-1288	-163	-3305	0	42
D:	2955.24	-1766	-212	-16528	59	127	-106	-1288	-163	-3305	1	42
D:	2956.98	-1947	-254	-16329	-31	127	-106	-1292	-184	-3340	3	42
D:	2958.64	-1947	-254	-16329	-31	127	-106	-1292	-184	-3340	2	41
D:	2960.23	-1947	-254	-16329	-74	24	-129	-1292	-184	-3340	3	41
D:	2961.83	-1530	-342	-16541	-74	24	-129	-1292	-184	-3340	0	41
D:	2963.43	-1530	-342	-16541	-40	48	-60	-1292	-184	-3340	1	41
D:	2964.99	-1769	-405	-16486	-40	48	-60	-1292	-184	-3340	3	41
D:	2966.58	-1769	-405	-16486	-40	48	-60	-1292	-184	-3340	2	41
D:	2968.19	-1769	-405	-16486	35	-5	-84	-1292	-184	-3340	3	41
D:	2969.83	-1798	-445	-16314	35	-5	-84	-1292	-184	-3340	0	41
D:	2971.43	-1798	-445	-16314	-5	19	-52	-1292	-184	-3340	1	41
D:	2973.22	-1706	-457	-16514	-5	19	-52	-1292	-184	-3340	0	41
D:	2974.83	-1706	-457	-16514	-5	19	-52	-1292	-184	-3340	2	41
D:	2976.43	-1706	-457	-16514	39	170	-154	-1282	-168	-3507	3	41
D:	2978.00	-1782	-309	-16324	39	170	-154	-1282	-168	-3507	0	42
D:	2979.59	-1782	-309	-16324	125	110	-179	-1282	-168	-3507	1	42
D:	2981.15	-1760	-321	-16364	125	110	-179	-1282	-168	-3507	0	42
D:	2982.75	-1760	-321	-16364	125	110	-179	-1282	-168	-3507	2	42
D:	2984.30	-1760	-321	-16364	50	145	-125	-1282	-168	-3507	3	42
D:	2985.82	-1857	-418	-16736	50	145	-125	-1282	-168	-3507	0	42
D:	2987.43	-1857	-418	-16736	132	41	-71	-1282	-168	-3507	1	42
D:	2988.98	-1791	-378	-16339	132	41	-71	-1282	-168	-3507	3	42
D:	2990.61	-1791	-378	-16339	132	41	-71	-1282	-168	-3507	2	42
D:	2992.13	-1791	-378	-16339	106	78	-76	-1282	-168	-3507	3	42
D:	2993.72	-1614	-409	-16440	106	78	-76	-1282	-168	-3507	0	42
D:	2995.33	-1614	-409	-16440	106	89	-108	-1282	-168	-3507	1	42
D:	2996.88	-1614	-377	-16291	9	89	-108	-1282	-177	-3378	3	42
D:	2998.53	-1777	-377	-16291	9	89	-108	-1282	-177	-3378	2	41
D:	3000.12	-1777	-377	-16291	-39	111	16	-1282	-177	-3378	3	41
D:	3001.72	-1861	-396	-16279	-39	111	16	-1282	-177	-3378	0	41
D:	3003.31	-1861	-396	-16279	-39	122	-76	-1282	-177	-3378	1	41
D:	3004.94	-1558	-437	-16547	-49	122	-76	-1282	-177	-3378	0	41
D:	3006.79	-1558	-437	-16547	-49	122	-76	-1282	-177	-3378	2	41
D:	3008.43	-1558	-437	-16547	49	140	-105	-1282	-177	-3378	3	41
D:	3009.98	-1823	-358	-16141	49	140	-105	-1282	-177	-3378	0	41
D:	3011.56	-1823	-358	-16141	-40	132	-45	-1282	-177	-3378	1	41
D:	3013.14	-1680	-399	-16131	-40	132	-45	-1282	-177	-3378	0	41
D:	3014.72	-1680	-399	-16131	-40	132	-45	-1282	-177	-3378	2	41
D:	3016.32	-1680	-399	-16131	-115	35	-58	-1282	-134	-3267	3	41
D:	3017.88	-1614	-282	-16396	-115	35	-58	-1282	-134	-3267	0	41
D:	3019.53	-1614	-282	-16396	-156	85	-158	-1282	-134	-3267	1	41
D:	3021.15	-1760	-288	-16265	-156	85	-158	-1275	-134	-3267	0	41
D:	3022.83	-1760	-288	-16265	-156	85	-158	-1275	-134	-3267	2	41
D:	3024.43	-1760	-288	-16265	-103	-115	-119	-1275	-134	-3267	3	41
D:	3025.98	-1626	-267	-16255	-103	-115	-119	-1275	-134	-3267	0	41
D:	3027.56	-1626	-267	-16255	-135	-14	-118	-1275	-134	-3267	1	41
D:	3029.15	-1705	-400	-16048	-135	-14	-118	-1275	-134	-3267	0	41
D:	3030.73	-1705	-400	-16048	-135	-14	-118	-1275	-134	-3267	2	41
D:	3032.30	-1705	-400	-16048	-91	157	-141	-1275	-134	-3267	3	41
D:	3033.99	-1639	-374	-16101	-91	157	-141	-1275	-134	-3267	0	41
D:	3035.62	-1639	-374	-16101	-132	-14	-110	-1275	-134	-3267	1	41
D:	3037.23	-1916	-478	-16186	-132	-14	-110	-1275	-134	-3267	0	41
D:	3038.82	-1916	-478	-16186	-132	-14	-110	-1275	-134	-3267	2	41
D:	3040.43	-1916	-478	-16186	-103	-73	-11	-1278	-183	-3349	3	41
D:	3042.00	-1629	-535	-16218	-103	-73	-11	-1278	-183	-3349	0	41
D:	3043.73	-1629	-535	-16218	-123	-28	-118	-1278	-183	-3349	1	41
D:	3045.33	-1677	-454	-16255	-123	-28	-118	-1278	-183	-3349	0	41
D:	3046.90	-1677	-454	-16255	-123	-28	-118	-1278	-183	-3349	2	41
D:	3048.53	-1677	-454	-16255	-53	16	-82	-1278	-183	-3349	3	41
D:	3050.15	-1762	-338	-16188	-53	16	-82	-1278	-183	-3349	2	41
D:	3051.71	-1762	-338	-16188	253	102	-65	-1278	-183	-3349	1	41
D:	3053.29	-1701	-281	-16236	253	102	-65	-1278	-183	-3349	0	41
D:	3054.93	-1701	-281	-16236	253	14	-88	-1278	-183	-3349	1	41
D:	3056.83	-1701	-281	-16236	-32	14	-88	-1278	-183	-3349	3	41
D:	3058.43	-1645	-325	-16466	-32	14	-88	-1278	-183	-3349	2	42
D:	3059.99	-1645	-325	-16466	-93	1	-87	-1288	-165	-3170	1	42
D:	3061.61	-1799	-184	-16259	-93	1	-87	-1288	-165	-3170	0	42
D:	3063.23	-1799	-184	-16259	-93	16	-99	-1288	-165	-3170	1	42
D:	3064.83	-1799	-184	-16259	-8	16	-99	-1288	-165	-3170	3	42
D:	3066.43	-1707	-65	-16579	-8	16	-99	-1288	-165	-3170	2	42
D:	3067.98	-1707	-65	-16579	-161	-65	-72	-1288	-165	-3170	1	42
D:	3069.61	-1759	-332	-16268	-161	-65	-72	-1288	-165	-3170	0	42
D:	3071.37	-1759	-332	-16268	-76	9	-85	-1288	-165	-3170	1	42
D:	3073.16	-1677	-385	-16289	-76	9	-85	-1288	-165	-3170	0	42
D:	3074.74	-1677	-385	-16289	-76	9	-85	-1288	-165	-3170	2	42
D:	3076.32	-1677	-385	-16289	-103	-2	-55	-1288	-165	-3170	3	42
D:	3077.87	-1629	-381	-16447	-103	-2	-55	-1288	-165	-3170	0	41
D:	3079.43	-1629	-381	-16447	-168	45	-42	-1288	-165	-3170	1	41
D:	3081.00	-1677	-298	-16263	-168	45	-42	-1292	-208	-3345	3	41
D:	3082.61	-1677	-298	-16263	-168	45	-42	-1292	-208	-3345	2	41
D:	3084.43	-1677	-298	-16263	-215	-47	-107	-1292	-208	-3345	3	41
D:	3085.98	-1752	-374	-16508	-215	-47	-107	-1292	-208	-3345	0	41
D:	3087.61	-1752	-374	-16508	-63	-74	-89	-1292	-208	-3345	1	41
D:	3089.28	-1826	-353	-16396	-63	-74	-89	-1292	-208	-3345	0	41
D:	3090.84	-1826	-353	-16396	-63	-74	-89	-1292	-208	-3345	2	41
