Syntax version=4
Wed May 02 13:27:39 2018
Starting process (2533211 clocks per sec)

LogRawData=false
VarHeader=1
D:		imu_acc_x	imu_acc_y	imu_acc_z	imu_gyro_x	imu_gyro_y	imu_gyro_z	imu_mag_x	imu_mag_y	imu_mag_z	Roll	Pitch	Yaw
D:	time(ms)	(0x20000236,3)	(0x20000238,3)	(0x2000023a,3)	(0x2000022a,3)	(0x2000022c,3)	(0x2000022e,3)	(0x20000230,3)	(0x20000232,3)	(0x20000234,3)	(0x200004dc,6)	(0x200005c4,6)	(0x20000484,6)
D:	0.07	-1645	-579	-16392	123	38	20	2635	-103	-5380	-177.760529	5.727286	1.577322
D:	3.80	-1645	-579	-16392	186	-35	33	2635	-103	-5380	-177.982285	4.985620	1.788950
D:	7.40	-1409	-599	-16141	229	109	-37	2635	-103	-5380	-177.879929	5.726657	1.784295
D:	11.01	-1632	-609	-16263	152	22	7	2635	-103	-5380	-177.860703	5.478849	1.887231
D:	14.57	-1556	-622	-16211	55	83	38	2635	-103	-5380	-177.807938	5.273520	1.775817
D:	18.43	-1520	-611	-16457	55	-17	68	2635	-103	-5380	-177.878998	5.519284	2.426027
D:	22.30	-1570	-680	-16234	121	-9	86	2640	-87	-5248	-177.606674	5.096227	2.607462
D:	25.90	-1454	-708	-16289	126	-9	86	2640	-87	-5248	-177.516449	5.096221	2.555983
D:	29.53	-1662	-702	-16303	21	9	28	2640	-87	-5248	-177.539627	5.815696	2.565614
D:	33.48	-1478	-715	-16440	142	81	18	2640	-87	-5248	-177.514923	5.132559	2.607365
D:	37.17	-1517	-574	-16509	-25	57	5	2640	-87	-5248	-178.013931	5.247126	1.646719
D:	40.85	-1599	-685	-16141	-44	163	28	2649	-95	-5317	-177.575134	5.652630	2.365608
D:	44.80	-1382	-642	-16200	-157	185	-177	2649	-95	-5317	-177.735809	4.872357	2.142240
D:	48.73	-1683	-735	-16579	-179	24	19	2649	-95	-5317	-177.466782	5.790986	2.537866
D:	52.68	-1458	-594	-16312	-215	-69	-137	2649	-95	-5317	-177.919739	5.104427	1.814194
D:	56.42	-1688	-599	-16582	-43	60	-70	2649	-95	-5317	-177.936432	5.808931	1.750863
D:	60.04	-1570	-724	-16280	74	15	-21	2637	-131	-5408	-177.936432	5.503175	1.993175
D:	63.61	-1570	-724	-16280	-91	55	55	2637	-131	-5408	-177.458862	5.155657	0.711528
D:	67.69	-1670	-601	-16522	-235	7	-25	2637	-131	-5408	-177.921997	5.768085	1.187951
D:	72.86	-1665	-594	-16350	-13	-18	63	2637	-131	-5408	-177.924576	5.811028	0.677433
D:	77.93	-1622	-508	-16317	-51	136	67	2637	-131	-5408	-178.222031	5.695169	0.713595
D:	83.41	-1629	-539	-16326	135	68	7	2629	-139	-5400	-177.630219	4.892402	1.578892
D:	88.64	-1585	-608	-16377	172	11	-16	2629	-139	-5400	-177.879120	5.524369	1.122025
D:	93.12	-1492	-619	-16186	92	19	-39	2629	-139	-5400	-177.815140	5.262882	1.241380
D:	96.73	-1624	-674	-16263	241	42	69	2629	-139	-5400	-177.632050	5.697879	1.539638
D:	100.48	-1669	-582	-16115	106	-26	63	2629	-139	-5400	-177.936874	5.909283	1.006453
D:	104.10	-1560	-577	-16223	63	149	102	2645	-111	-5495	-177.936874	5.489374	1.530423
D:	107.83	-1560	-577	-16223	42	38	49	2645	-111	-5495	-177.968292	5.110667	2.221873
D:	111.52	-1480	-699	-16534	81	110	26	2645	-111	-5495	-177.584427	5.404974	2.446208
D:	115.20	-1546	-730	-16324	-127	144	-49	2645	-111	-5495	-177.444717	4.684370	2.295478
D:	118.94	-1361	-709	-16595	-166	54	-94	2645	-111	-5495	-177.558838	5.460018	1.594950
D:	122.50	-1535	-581	-16049	-125	163	-16	2645	-111	-5495	-177.931946	5.506610	1.849226
D:	126.24	-1565	-624	-16222	-125	126	-43	2624	-101	-5242	-177.802368	5.808104	1.666522
D:	129.95	-1694	-611	-16643	-164	126	-43	2624	-101	-5242	-177.902740	5.808095	1.577846
D:	133.83	-1601	-581	-16277	-106	67	27	2624	-101	-5242	-177.960968	5.614136	1.491350
D:	137.59	-1523	-581	-16789	-80	55	45	2624	-101	-5242	-178.023254	5.180420	1.491350
D:	141.18	-1613	-672	-16416	-127	151	18	2624	-101	-5242	-177.661102	5.607243	1.781008
D:	144.74	-1493	-542	-16179	-50	-2	150	2623	-119	-5284	-178.086533	5.269545	1.072512
D:	148.32	-1464	-628	-16789	-69	21	-11	2623	-119	-5284	-177.863068	4.980266	1.465666
D:	153.28	-1603	-597	-16545	33	92	-20	2623	-119	-5284	-177.938705	5.530545	1.954084
D:	157.85	-1475	-699	-16467	-112	38	-28	2623	-119	-5284	-177.574570	4.965768	1.333015
D:	163.08	-1418	-588	-16310	88	43	12	2627	-103	-5262	-177.940536	5.596861	1.445083
D:	168.39	-1546	-612	-16635	64	-30	0	2627	-103	-5262	-177.898300	5.306209	1.671470
D:	173.35	-1627	-634	-16251	160	-33	77	2627	-103	-5262	-177.771088	5.713077	1.865831
D:	177.42	-1688	-668	-16865	191	25	26	2627	-103	-5262	-177.737015	5.711359	1.922910
D:	181.16	-1593	-592	-16280	224	66	-46	2627	-103	-5262	-177.922684	5.585105	1.627491
D:	185.00	-1411	-696	-16881	237	42	50	2626	-105	-5337	-177.644287	4.774071	2.150583
D:	188.74	-1429	-676	-16518	235	70	57	2626	-105	-5337	-177.661713	4.940475	2.110042
D:	192.28	-1560	-611	-16413	260	117	58	2626	-105	-5337	-177.873306	5.425883	1.719265
D:	196.04	-1567	-570	-16496	174	99	-17	2626	-105	-5337	-177.873306	5.423342	1.457827
D:	199.85	-1567	-570	-16496	234	86	-27	2626	-105	-5337	-178.026245	5.692457	1.448527
D:	203.40	-1630	-565	-16343	152	52	99	2624	-98	-5415	-178.025238	4.573567	2.316169
D:	207.02	-1320	-674	-16488	88	135	18	2624	-98	-5415	-177.664398	5.639408	1.791469
D:	210.93	-1632	-599	-16517	14	121	-90	2624	-98	-5415	-177.928299	5.115895	2.564025
D:	214.59	-1455	-710	-16237	40	95	-75	2624	-98	-5415	-177.501450	5.140661	2.203832
D:	218.23	-1485	-662	-16494	40	156	-8	2624	-98	-5415	-177.706863	5.140661	2.041223
D:	221.89	-1567	-633	-16356	62	156	-8	2624	-98	-5415	-177.788910	5.468659	1.416967
D:	225.51	-1551	-664	-16410	21	201	-40	2625	-131	-5380	-177.688141	5.395072	1.580052
D:	229.29	-1616	-634	-16375	108	129	20	2625	-131	-5380	-177.787994	5.632073	1.409013
D:	233.03	-1454	-637	-16379	-41	128	-2	2625	-131	-5380	-177.778046	5.069312	1.449207
D:	236.65	-1475	-619	-16679	76	160	65	2625	-131	-5380	-177.879837	5.050470	1.272775
D:	240.18	-1534	-529	-16251	71	61	67	2625	-131	-5380	-177.879837	5.389732	0.810211
D:	243.73	-1534	-529	-16251	112	16	-29	2630	-84	-5350	-178.140839	5.333390	2.420492
D:	247.41	-1524	-658	-16312	79	21	55	2630	-84	-5350	-177.695282	5.677687	2.184230
D:	251.14	-1617	-620	-16253	25	78	5	2630	-84	-5350	-177.820663	5.821171	2.174301
D:	254.72	-1656	-619	-16232	112	168	72	2630	-84	-5350	-177.821350	5.735580	2.398304
D:	258.23	-1645	-661	-16365	112	132	67	2630	-84	-5350	-177.692261	5.874140	0.984269
D:	261.79	-1683	-423	-16355	104	132	67	2630	-84	-5350	-178.523727	5.873525	1.004402
D:	265.44	-1482	-642	-16410	115	99	66	2630	-84	-5350	-177.764832	5.156657	2.159971
D:	269.21	-1670	-686	-16466	305	95	-37	2614	-91	-5356	-177.619583	5.786385	2.407289
D:	272.81	-1562	-661	-16418	277	104	34	2614	-91	-5356	-177.699707	5.430520	2.293855
D:	276.48	-1584	-643	-16715	226	103	18	2614	-91	-5356	-177.802261	5.409660	2.118740
D:	280.13	-1645	-547	-16167	186	52	18	2614	-91	-5356	-177.802261	5.806749	1.643565
D:	283.72	-1645	-547	-16167	364	54	23	2614	-91	-5356	-178.067429	4.573594	2.254230
D:	287.56	-1314	-645	-16414	291	191	21	2617	-97	-5402	-177.754913	5.043611	2.485217
D:	291.17	-1453	-703	-16449	293	62	86	2617	-97	-5402	-177.558014	4.930223	1.920729
D:	294.79	-1417	-608	-16416	25	108	49	2617	-97	-5402	-177.884155	5.190873	2.586190
D:	298.63	-1499	-723	-16485	248	150	29	2617	-97	-5402	-177.493958	5.501540	2.396156
D:	302.49	-1566	-685	-16245	309	200	-26	2617	-97	-5402	-177.590683	4.982367	2.255553
D:	306.26	-1436	-665	-16459	309	149	75	2617	-97	-5402	-177.691559	4.982367	1.743966
D:	310.04	-1507	-703	-16413	266	70	75	2630	-132	-5289	-177.552643	5.241419	1.128977
D:	313.58	-1525	-591	-16160	181	70	75	2630	-132	-5289	-177.910767	5.387547	1.128977
D:	317.15	-1616	-731	-16365	227	98	23	2630	-132	-5289	-177.447632	5.634107	1.901811
D:	320.79	-1689	-591	-16316	191	-6	-18	2630	-132	-5289	-177.930786	5.906424	1.079321
D:	324.51	-1598	-666	-16454	70	130	-5	2630	-132	-5289	-177.687378	5.542779	1.504009
D:	328.15	-1525	-685	-16285	85	126	-58	2625	-66	-5500	-177.687378	5.345289	3.025460
D:	331.72	-1525	-685	-16285	79	55	-54	2625	-66	-5500	-177.596619	5.675552	3.024318
D:	335.41	-1628	-693	-16367	95	99	57	2625	-66	-5500	-177.580688	5.440634	3.168980
D:	339.06	-1564	-715	-16406	92	-12	27	2625	-66	-5500	-177.509781	5.645020	2.735015
D:	342.61	-1609	-641	-16266	103	39	-10	2625	-66	-5500	-177.748535	4.943978	2.812619
D:	346.33	-1427	-653	-16484	103	100	-26	2625	-66	-5500	-177.736710	5.393332	2.650288
D:	350.31	-1567	-789	-16580	140	132	68	2625	-113	-5415	-177.280731	5.383430	1.726653
D:	353.97	-1543	-626	-16363	51	126	60	2625	-113	-5415	-177.814346	5.383198	1.760944
D:	357.80	-1426	-644	-16802	66	126	60	2625	-113	-5415	-177.810242	4.847716	2.688097
D:	361.53	-1588	-778	-16163	51	33	99	2625	-113	-5415	-177.249435	5.604967	2.693147
D:	365.23	-1598	-654	-16466	161	129	59	2625	-113	-5415	-177.730759	5.538932	2.299674
D:	368.99	-1566	-629	-16411	114	85	-24	2614	-87	-5345	-177.810287	5.447062	2.169181
D:	372.58	-1448	-668	-16297	159	53	-9	2614	-87	-5345	-177.658066	5.073349	2.456584
D:	376.17	-1372	-751	-16600	216	154	13	2614	-87	-5345	-177.658066	4.720125	2.907778
D:	379.76	-1372	-751	-16600	171	132	104	2614	-87	-5345	-177.414886	5.692425	2.429650
D:	383.31	-1629	-672	-16329	156	91	18	2614	-87	-5345	-177.648636	5.111314	2.196004
D:	387.05	-1483	-636	-16568	163	84	-27	2625	-103	-5394	-177.806900	5.118113	2.865630
D:	390.73	-1469	-784	-16383	208	101	-9	2625	-103	-5394	-177.265442	5.448500	2.056834
D:	394.30	-1571	-657	-16458	208	72	-52	2625	-103	-5394	-177.719223	5.214749	2.167655
D:	397.93	-1483	-664	-16236	200	72	-52	2625	-103	-5394	-177.663345	5.214747	2.251656
D:	401.63	-1614	-687	-16351	260	-5	84	2625	-103	-5394	-177.599319	5.632608	2.251656
D:	405.43	-1478	-727	-16203	196	15	25	2625	-103	-5394	-177.436203	5.206908	2.944840
D:	409.14	-1539	-666	-16267	179	-23	-87	2625	-80	-5339	-177.660767	5.400256	2.539158
D:	412.73	-1642	-711	-16320	69	-59	-100	2632	-80	-5339	-177.510651	5.740112	2.768659
D:	416.48	-1668	-795	-16174	-4	-72	11	2632	-80	-5339	-177.191223	5.881135	3.295020
D:	420.17	-1556	-640	-16111	44	-53	22	2632	-80	-5339	-177.191223	5.512357	2.412676
D:	423.74	-1556	-640	-16111	-35	-75	-102	2632	-80	-5339	-177.730392	4.976849	1.980038
D:	427.27	-1445	-580	-16584	-34	234	-57	2632	-80	-5339	-178.002243	5.739760	2.556611
D:	430.88	-1634	-672	-16243	-1	-44	11	2632	-80	-5339	-177.636169	5.393083	1.906780
D:	434.44	-1547	-631	-16375	-1	20	-14	2635	-103	-5378	-177.798492	5.402749	1.933129
D:	438.24	-1534	-629	-16208	-30	72	51	2635	-103	-5378	-177.782837	5.402749	2.336635
D:	441.84	-1466	-695	-16259	-22	72	51	2635	-103	-5378	-177.557587	5.147644	2.341264
D:	445.41	-1491	-752	-16760	-66	74	71	2635	-103	-5378	-177.436157	5.078821	2.551469
D:	449.01	-1611	-589	-16263	-15	182	51	2635	-103	-5378	-177.931046	5.653703	1.890349
D:	452.86	-1552	-614	-16151	33	79	-54	2629	-86	-5230	-177.828125	5.485101	2.071690
D:	456.58	-1587	-672	-16218	-22	117	-58	2629	-86	-5230	-177.632507	5.584245	2.392836
D:	460.41	-1554	-601	-16316	-14	58	-14	2629	-86	-5230	-177.895706	5.437159	1.961040
D:	464.23	-1358	-783	-16304	-6	158	-67	2629	-86	-5230	-177.255707	4.755999	3.092861
D:	467.79	-1358	-783	-16304	23	34	0	2629	-86	-5230	-177.255707	5.544378	1.784612
D:	471.32	-1596	-576	-16432	95	39	6	2631	-119	-5262	-177.997650	5.333562	1.969330
D:	475.01	-1523	-700	-16299	123	117	-21	2631	-119	-5262	-177.546051	5.594944	1.633066
D:	478.86	-1597	-645	-16290	142	93	43	2631	-119	-5262	-177.737808	5.894689	1.265573
D:	482.49	-1670	-580	-16165	55	87	63	2631	-119	-5262	-177.950363	5.439347	2.064862
D:	486.10	-1577	-728	-16546	55	108	-1	2631	-119	-5262	-177.485916	5.439347	1.531982
D:	489.63	-1594	-628	-16296	-6	108	-1	2631	-119	-5262	-177.798309	5.582685	2.173326
D:	493.28	-1446	-684	-16558	65	55	12	2635	-81	-5128	-177.639740	4.986859	2.437754
D:	496.96	-1674	-700	-16498	139	-75	12	2635	-81	-5128	-177.575684	5.788791	2.489474
D:	500.49	-1544	-637	-16301	58	-34	-39	2635	-81	-5128	-177.767426	5.406863	2.199360
D:	504.04	-1715	-759	-16717	43	-54	-67	2635	-81	-5128	-177.767426	5.851679	2.762022
D:	507.82	-1715	-646	-16360	94	10	-14	2635	-81	-5128	-177.405624	5.491437	2.232808
D:	511.55	-1574	-646	-16360	-67	130	36	2631	-94	-5278	-177.744019	4.715563	2.185527
D:	515.28	-1373	-664	-16632	-6	-7	-2	2631	-94	-5278	-177.719025	5.105546	2.829553
D:	519.22	-1478	-773	-16525	73	36	-10	2631	-94	-5278	-177.327011	5.792852	2.391957
D:	523.04	-1655	-697	-16299	23	108	-20	2631	-94	-5278	-177.556564	5.623060	2.763797
D:	526.78	-1623	-766	-16467	59	65	43	2631	-94	-5278	-177.341919	5.103798	2.461001
D:	530.40	-1470	-707	-16444	59	28	4	2631	-94	-5278	-177.543350	5.103798	2.590334
D:	533.95	-1731	-695	-16432	57	28	4	2619	-78	-5217	-177.583313	6.008388	2.436767
D:	537.60	-1555	-666	-16561	9	158	63	2619	-78	-5217	-177.702332	5.359928	2.419569
D:	541.26	-1613	-680	-16392	-46	167	4	2619	-78	-5217	-177.629745	5.615275	2.540816
D:	544.93	-1546	-658	-16757	105	131	119	2619	-78	-5217	-177.756561	5.267303	2.351609
D:	548.79	-1703	-670	-16398	128	98	-15	2619	-78	-5217	-177.665497	5.924415	2.202572
D:	552.33	-1657	-598	-16080	69	162	243	2636	-99	-5420	-177.875443	5.879545	1.847664
D:	556.00	-1657	-666	-16426	118	46	14	2636	-99	-5420	-177.875443	6.045468	2.164734
D:	559.56	-1741	-666	-16426	100	190	9	2636	-99	-5420	-177.683426	5.746120	2.363352
D:	563.30	-1637	-689	-16254	92	103	34	2636	-99	-5420	-177.577942	5.497302	2.690222
D:	567.05	-1576	-745	-16359	44	110	102	2636	-99	-5420	-177.397736	5.814173	1.794273
D:	570.71	-1670	-600	-16390	123	79	4	2636	-99	-5420	-177.908707	5.465813	3.361621
D:	574.52	-1568	-730	-16371	193	89	-15	2636	-55	-5367	-177.452042	4.993873	3.170303
D:	578.41	-1446	-698	-16534	193	-4	35	2638	-55	-5367	-177.587875	6.198749	3.747824
D:	582.20	-1733	-787	-15941	138	41	8	2638	-55	-5367	-177.178848	6.197146	2.222141
D:	585.87	-1649	-537	-16193	235	41	8	2638	-55	-5367	-178.105865	5.811620	2.827254
D:	589.54	-1669	-647	-16418	107	-22	-40	2638	-55	-5367	-177.748505	5.800261	2.827254
D:	593.19	-1518	-716	-16455	162	-54	-6	2638	-55	-5367	-177.513718	5.265909	2.233103
D:	596.72	-1748	-658	-16470	138	-61	35	2654	-110	-5338	-177.717407	6.053643	1.845589
D:	600.50	-1571	-668	-16285	177	-62	35	2654	-110	-5338	-177.656311	5.505784	1.977077
D:	604.24	-1554	-738	-16428	167	33	25	2654	-110	-5338	-177.433029	5.398539	2.361530
D:	607.93	-1554	-738	-16428	111	61	43	2654	-110	-5338	-177.433029	5.752585	1.794911
D:	611.50	-1633	-636	-16198	35	-2	-11	2654	-110	-5338	-177.756744	4.911907	2.518579
D:	615.23	-1423	-764	-16541	122	21	35	2646	-78	-5261	-177.360718	4.999552	2.546735
D:	619.11	-1439	-674	-16436	119	39	15	2646	-78	-5261	-177.656998	6.236339	2.682474
D:	622.75	-1758	-697	-16073	55	96	-14	2646	-78	-5261	-177.522171	4.830559	2.762591
D:	626.28	-1368	-697	-16173	55	86	-2	2646	-78	-5261	-177.537521	5.517026	2.646515
D:	630.24	-1572	-690	-16261	118	100	-117	2646	-78	-5261	-177.575470	5.244274	2.942431
D:	633.86	-1501	-740	-16337	64	100	-117	2646	-78	-5261	-177.411728	5.244254	2.622346
D:	637.40	-1731	-668	-16480	40	69	-21	2645	-99	-5346	-177.684097	5.991449	2.112273
D:	641.00	-1528	-695	-16261	98	118	31	2645	-99	-5346	-177.557892	5.363449	2.364608
D:	644.74	-1694	-655	-16805	145	129	-12	2645	-99	-5346	-177.773178	5.751993	1.976139
D:	648.54	-1602	-651	-16368	13	153	-35	2645	-99	-5346	-177.727631	5.585734	2.062466
D:	652.41	-1535	-532	-16764	59	167	-107	2645	-99	-5346	-178.187592	5.229250	1.296136
D:	656.06	-1566	-741	-16348	5	145	-74	2652	-53	-5364	-178.187592	5.466338	3.450049
D:	659.60	-1566	-741	-16348	60	58	64	2652	-53	-5364	-177.409973	4.920443	3.189001
D:	663.16	-1403	-686	-16283	86	118	64	2652	-53	-5364	-177.592804	5.028308	3.230296
D:	666.82	-1466	-710	-16647	150	70	53	2652	-53	-5364	-177.563034	5.530092	3.081203
D:	670.66	-1566	-672	-16161	66	74	-60	2652	-53	-5364	-177.624161	5.100148	3.120273
D:	674.22	-1471	-685	-16468	66	47	24	2652	-53	-5364	-177.623352	5.555075	1.890085
D:	677.87	-1610	-595	-16540	105	47	24	2641	-88	-5333	-177.945007	5.556236	3.038898
D:	681.70	-1591	-775	-16184	124	119	80	2641	-88	-5333	-177.263611	5.608314	1.446771
D:	685.67	-1403	-516	-16593	133	26	55	2641	-88	-5333	-178.224075	4.830894	1.411062
D:	689.40	-1638	-749	-16359	173	-36	24	2641	-88	-5333	-177.383759	5.712100	2.827801
D:	693.03	-1466	-708	-16481	247	-15	241	2641	-88	-5333	-177.545410	5.078624	2.758327
D:	696.60	-1649	-609	-16325	147	25	57	2643	-72	-5142	-177.868835	5.764112	2.179728
D:	700.23	-1702	-713	-16266	186	-13	-27	2643	-72	-5142	-177.495346	5.967919	2.773787
D:	703.84	-1702	-713	-16266	264	253	-53	2643	-72	-5142	-177.495346	5.634630	3.091583
D:	707.40	-1634	-777	-16544	165	115	11	2643	-72	-5142	-177.316269	5.601439	2.898208
D:	711.15	-1595	-729	-16247	37	93	23	2643	-72	-5142	-177.436111	5.705453	2.742828
D:	714.76	-1640	-710	-16400	88	88	35	2643	-72	-5142	-177.526291	5.669023	3.058910
D:	718.56	-1638	-779	-16483	65	68	25	2650	-82	-5314	-177.299408	5.728357	3.097953
D:	722.27	-1633	-776	-16261	65	105	-52	2650	-82	-5314	-177.273056	5.728357	2.746556
D:	725.85	-1487	-721	-16547	-44	105	-52	2650	-82	-5314	-177.510269	5.130414	2.707991
D:	729.39	-1615	-736	-16351	72	117	9	2650	-82	-5314	-177.427948	5.635346	2.846128
D:	733.02	-1448	-824	-16543	-24	157	-88	2650	-82	-5314	-177.153717	4.996305	3.900214
D:	736.68	-1678	-704	-16265	-11	152	-3	2650	-62	-5521	-177.526840	5.884859	3.164608
D:	740.22	-1546	-702	-16239	-3	135	-8	2646	-62	-5521	-177.529922	5.433450	3.200454
D:	743.73	-1546	-702	-16239	9	153	47	2646	-62	-5521	-177.529922	5.157509	3.378541
D:	747.27	-1476	-731	-16337	134	182	-65	2646	-62	-5521	-177.443237	5.676321	2.540479
D:	750.87	-1603	-593	-16117	91	106	-22	2646	-62	-5521	-177.898087	5.283680	3.113125
D:	754.40	-1504	-686	-16249	91	38	95	2646	-62	-5521	-177.587769	5.404761	3.678856
D:	758.00	-1547	-784	-16333	50	112	-32	2646	-62	-5521	-177.257065	5.404672	2.634187
D:	761.90	-1569	-697	-16195	15	112	-32	2642	-84	-5313	-177.540863	5.528723	3.021782
D:	765.70	-1515	-784	-16778	-14	108	-11	2642	-84	-5313	-177.329865	5.154192	3.021782
D:	769.29	-1549	-739	-16063	138	116	63	2642	-84	-5313	-177.371124	5.502538	2.922696
D:	772.96	-1285	-833	-16397	91	147	66	2642	-84	-5313	-177.096985	4.475381	3.485657
D:	776.71	-1499	-745	-16606	91	58	9	2642	-84	-5313	-177.436478	5.153026	2.836540
D:	780.31	-1525	-735	-16386	-252	190	-60	2646	-64	-5152	-177.436935	5.311890	3.071095
D:	783.94	-1525	-735	-16386	81	36	-40	2646	-64	-5152	-177.436935	5.471067	3.169195
D:	787.60	-1591	-764	-16594	97	24	49	2646	-64	-5152	-177.369156	5.783377	3.251860
D:	791.30	-1645	-766	-16224	54	37	-19	2646	-64	-5152	-177.302094	5.344219	3.369188
D:	795.13	-1534	-787	-16380	159	151	15	2646	-64	-5152	-177.254486	5.116117	2.988582
D:	798.84	-1485	-726	-16571	143	124	18	2646	-64	-5152	-177.496628	5.542929	2.951583
D:	802.46	-1582	-769	-16284	143	19	6	2648	-91	-5375	-177.301483	5.152808	2.734526
D:	806.30	-1501	-743	-16629	93	89	-47	2648	-91	-5375	-177.446915	5.773123	2.752292
D:	810.16	-1640	-735	-16205	127	175	-121	2648	-91	-5375	-177.408279	5.773123	2.728592
D:	813.81	-1485	-733	-16425	55	175	-121	2648	-91	-5375	-177.449982	5.161164	2.725998
D:	817.56	-1553	-737	-16459	102	185	-31	2648	-91	-5375	-177.441376	5.385018	2.975618
D:	821.30	-1574	-696	-16281	76	96	67	2643	-70	-5201	-177.557373	5.517184	2.783398
D:	824.92	-1670	-715	-16726	107	177	-23	2643	-70	-5201	-177.557465	5.696774	2.769674
D:	828.59	-1713	-677	-16498	1	147	-87	2643	-70	-5201	-177.655411	5.923049	2.592172
D:	832.18	-1565	-725	-16306	85	159	84	2643	-70	-5201	-177.655411	5.477065	2.948944
D:	835.78	-1565	-725	-16306	-9	79	23	2643	-70	-5201	-177.459427	5.372323	2.922319
D:	839.30	-1552	-727	-16488	9	184	22	2645	-86	-5352	-177.480545	5.623155	2.657614
D:	842.91	-1596	-704	-16195	-3	169	-33	2645	-86	-5352	-177.516129	4.989058	3.076699
D:	846.56	-1443	-780	-16512	26	107	18	2645	-86	-5352	-177.300690	5.449810	2.797862
D:	850.19	-1576	-739	-16503	26	109	49	2645	-86	-5352	-177.441254	5.449810	2.256087
D:	853.71	-1591	-641	-16317	33	109	49	2645	-86	-5352	-177.755585	5.564958	2.272348
D:	857.22	-1545	-761	-16606	-18	216	-13	2645	-86	-5352	-177.381378	5.310037	3.203111
D:	860.72	-1647	-717	-16210	33	113	-66	2643	-71	-5374	-177.472580	5.796111	3.005563
D:	864.24	-1495	-716	-16350	15	118	44	2643	-71	-5374	-177.497726	5.219623	3.011625
D:	867.84	-1495	-716	-16350	30	138	-30	2643	-71	-5374	-177.497726	5.264436	3.265215
D:	871.39	-1540	-775	-16696	28	88	104	2643	-71	-5374	-177.347565	5.653020	3.440927
D:	875.21	-1617	-793	-16317	94	161	95	2643	-71	-5374	-177.222855	4.973325	2.985033
D:	878.98	-1440	-716	-16533	114	71	-13	2643	-71	-5374	-177.525452	5.356326	2.920210
D:	882.62	-1545	-747	-16462	28	152	15	2622	-83	-5326	-177.407074	5.353484	2.329165
D:	886.39	-1545	-648	-16475	28	245	-58	2622	-83	-5326	-177.752838	5.378652	2.793380
D:	890.04	-1528	-715	-16214	89	245	-58	2622	-83	-5326	-177.480255	5.378591	2.058242
D:	893.65	-1591	-599	-16326	32	194	-71	2622	-83	-5326	-177.904007	5.562453	2.058242
D:	897.19	-1449	-719	-16263	20	228	208	2622	-83	-5326	-177.473801	5.086700	2.695861
D:	900.72	-1525	-746	-16483	136	79	30	2622	-83	-5148	-177.413864	5.280714	3.098435
D:	904.42	-1551	-664	-16284	124	96	19	2638	-65	-5148	-177.670227	5.436500	2.662582
D:	908.24	-1565	-682	-16460	100	150	-7	2638	-65	-5148	-177.632614	5.426829	2.725331
D:	911.89	-1565	-815	-16226	39	-240	43	2638	-65	-5148	-177.632614	5.642154	3.533448
D:	915.70	-1605	-815	-16226	24	56	76	2638	-65	-5148	-177.129791	5.457458	3.287844
D:	919.54	-1581	-784	-16530	8	72	5	2638	-65	-5148	-177.289795	5.504804	2.955648
D:	923.16	-1574	-717	-16317	-26	210	2	2627	-62	-5326	-177.489166	6.219938	3.127713
D:	926.72	-1782	-725	-16335	-39	128	-15	2627	-62	-5326	-177.463928	4.658409	3.118977
D:	930.30	-1358	-714	-16651	-39	86	32	2627	-62	-5326	-177.549881	4.658409	2.960355
D:	933.95	-1616	-699	-16622	5	86	32	2627	-62	-5326	-177.597229	5.548167	4.065709
D:	937.50	-1549	-853	-15960	-22	96	50	2627	-62	-5326	-176.945877	5.535799	4.065709
D:	941.07	-1428	-557	-15252	-34	242	-165	2627	-62	-5326	-177.913757	5.345458	2.270438
D:	944.66	-1851	-1014	-18287	58	5	-89	2624	-76	-5473	-176.831467	5.771127	4.110394
D:	948.43	-1485	-698	-15371	73	110	-61	2624	-76	-5473	-177.405197	5.512764	3.144453
D:	952.10	-1529	-697	-17003	75	155	-28	2624	-76	-5473	-177.405197	5.134382	2.734888
D:	955.67	-1529	-697	-17003	-37	68	-46	2624	-76	-5473	-177.657852	5.434133	2.564118
D:	959.28	-1561	-648	-16397	0	212	-5	2624	-76	-5473	-177.742126	5.383053	2.471623
D:	963.06	-1531	-626	-16236	-37	43	-12	2612	-91	-5377	-177.797226	5.782824	2.910289
D:	966.91	-1667	-767	-16443	-44	160	-26	2612	-91	-5377	-177.334549	5.646087	2.034691
D:	970.54	-1581	-601	-15981	36	185	8	2612	-91	-5377	-177.851532	5.136949	2.627092
D:	974.31	-1504	-723	-16715	36	79	-2	2612	-91	-5377	-177.528473	5.136949	2.977124
D:	977.95	-1767	-786	-16511	211	79	-2	2612	-91	-5377	-177.279739	6.101842	2.895312
D:	981.50	-1420	-745	-16258	99	486	68	2612	-91	-5377	-177.381577	4.986579	3.818113
D:	985.10	-1485	-527	-16349	-29	127	29	2624	-46	-5513	-178.159012	5.187479	2.422604
D:	988.66	-1602	-729	-16388	6	144	81	2624	-46	-5513	-177.458176	5.577861	3.619049
D:	992.32	-1281	-797	-16650	-98	123	-5	2624	-46	-5513	-177.264694	4.394613	4.097345
D:	996.02	-1574	-732	-16261	-33	140	-68	2624	-46	-5513	-177.264694	5.523383	3.677877
D:	999.73	-1574	-732	-16261	23	39	-92	2624	-46	-5513	-177.427765	5.521164	3.582727
D:	1003.41	-1603	-730	-16568	10	79	3	2617	-74	-5300	-177.482361	5.232956	3.180840
D:	1007.02	-1508	-763	-16448	46	112	-9	2617	-74	-5300	-177.349258	5.462455	2.703301
D:	1010.59	-1552	-676	-16216	74	-1	15	2617	-74	-5300	-177.618118	5.304586	2.741166
D:	1014.19	-1524	-688	-16400	74	40	22	2617	-74	-5300	-177.603012	5.304586	3.017381
D:	1017.87	-1543	-735	-16392	58	40	22	2617	-74	-5300	-177.437881	5.372272	3.006346
D:	1021.39	-1583	-606	-16423	-24	200	-67	2617	-74	-5300	-177.892014	5.502127	2.038688
D:	1024.93	-1295	-749	-16693	-56	-52	-8	2619	-90	-5461	-177.436142	4.431664	2.923233
D:	1028.50	-1577	-798	-16400	-25	107	-28	2619	-90	-5461	-177.219498	5.486301	3.210746
D:	1032.06	-1459	-761	-16390	18	77	-35	2619	-90	-5461	-177.219498	5.081634	3.024554
D:	1035.62	-1459	-761	-16390	-39	91	-244	2619	-90	-5461	-177.346848	5.097689	2.843547
D:	1039.15	-1492	-746	-16709	-34	166	-13	2619	-90	-5461	-177.448868	5.938745	2.921938
D:	1042.82	-1704	-755	-16364	11	173	9	2619	-90	-5461	-177.363602	5.252573	3.647214
D:	1046.51	-1489	-808	-16177	-17	227	-59	2624	-72	-5413	-177.145828	5.337751	2.260418
D:	1050.11	-1515	-584	-16205	-17	115	-65	2624	-72	-5413	-177.941315	5.337751	4.141067
D:	1053.75	-1527	-906	-16480	59	115	-65	2624	-72	-5413	-176.858505	5.286003	4.100413
D:	1057.40	-1622	-708	-16436	17	98	114	2624	-72	-5413	-177.538696	5.631009	2.933573
D:	1061.07	-1539	-700	-16378	0	119	23	2624	-72	-5413	-177.557892	5.363469	2.743468
D:	1064.60	-1575	-761	-16545	11	71	44	2624	-72	-5157	-177.371719	5.432333	3.354721
D:	1068.21	-1701	-670	-16268	19	111	3	2636	-63	-5365	-177.371719	5.964375	2.842268
D:	1071.78	-1701	-670	-16268	20	157	-6	2636	-63	-5365	-177.646835	5.270088	2.774557
D:	1075.39	-1526	-660	-16531	11	72	47	2636	-63	-5365	-177.718933	5.115110	3.142104
D:	1079.02	-1482	-720	-16541	56	91	-66	2636	-63	-5365	-177.512833	5.081885	3.455577
D:	1082.61	-1459	-765	-16389	91	51	20	2636	-63	-5365	-177.332733	4.968278	2.191278
D:	1086.17	-1418	-551	-16303	91	-18	-27	2636	-63	-5365	-178.069534	5.826097	2.923583
D:	1089.81	-1654	-687	-16201	83	-18	-27	2610	-67	-5366	-177.577087	5.824244	2.859196
D:	1093.54	-1450	-669	-16263	175	14	-45	2610	-67	-5366	-177.649628	5.090855	2.859196
D:	1097.26	-1563	-738	-16324	75	-41	-9	2610	-67	-5366	-177.416672	5.463931	3.229569
D:	1100.87	-1672	-654	-16364	40	-39	146	2610	-67	-5366	-177.716583	5.829530	2.685465
D:	1104.62	-1490	-759	-16774	158	-61	42	2610	-67	-5366	-177.414444	5.071132	2.980379
D:	1108.24	-1637	-754	-16447	35	59	11	2623	-84	-5417	-177.380402	5.678277	2.987289
D:	1111.95	-1440	-763	-16883	49	30	28	2623	-84	-5417	-177.380402	4.870320	2.992365
D:	1115.81	-1440	-763	-16883	7	151	-30	2623	-84	-5417	-177.417603	4.978231	3.106292
D:	1119.58	-1450	-772	-16629	14	127	89	2623	-84	-5417	-177.347183	5.383956	2.750077
D:	1123.29	-1544	-707	-16368	69	105	73	2623	-84	-5417	-177.531921	4.866014	2.961167
D:	1126.91	-1407	-741	-16511	43	47	31	2623	-84	-5417	-177.435562	5.657521	2.376261
D:	1130.49	-1614	-648	-16280	35	74	26	2618	-80	-5270	-177.725891	5.279716	2.949045
D:	1134.08	-1525	-749	-16486	35	93	59	2618	-80	-5270	-177.403931	5.279716	2.567224
D:	1137.85	-1566	-678	-16273	-35	93	59	2618	-80	-5270	-177.619431	5.492246	2.791731
D:	1141.50	-1573	-718	-16321	-13	85	99	2618	-80	-5270	-177.486267	5.499976	2.791731
D:	1145.14	-1536	-748	-16541	30	14	18	2618	-80	-5270	-177.416016	5.300052	2.975817
D:	1148.82	-1676	-631	-16386	-40	184	37	2612	-80	-5328	-177.799973	5.835920	2.281136
D:	1152.67	-1497	-699	-16491	6	169	51	2612	-80	-5328	-177.578110	5.182436	2.706411
D:	1156.29	-1704	-765	-16690	44	159	-10	2612	-80	-5328	-177.380875	5.823631	2.991654
D:	1159.84	-1704	-765	-16690	73	204	11	2612	-80	-5328	-177.380875	5.257502	3.028415
D:	1163.39	-1503	-746	-16317	153	124	14	2612	-80	-5328	-177.387527	5.284438	2.557604
D:	1166.94	-1537	-680	-16604	111	138	-33	2612	-80	-5328	-177.660065	5.671217	3.100985
D:	1170.56	-1625	-747	-16347	104	174	-7	2619	-74	-5338	-177.388840	4.868241	2.839976
D:	1174.15	-1393	-692	-16341	104	109	51	2619	-74	-5338	-177.580368	4.868241	2.563859
D:	1177.72	-1583	-655	-16350	107	109	51	2619	-74	-5338	-177.711136	5.525874	2.563859
D:	1181.40	-1565	-604	-16431	87	116	14	2619	-74	-5338	-177.900009	5.437336	2.247020
D:	1185.19	-1497	-745	-16512	111	67	-14	2619	-74	-5338	-177.421860	5.175266	2.899329
D:	1188.93	-1536	-670	-16351	106	112	-74	2632	-87	-5423	-177.658798	5.362256	2.473817
D:	1192.56	-1673	-662	-16388	103	58	96	2632	-87	-5423	-177.692017	5.824409	2.384759
D:	1196.18	-1617	-748	-16398	103	147	77	2632	-87	-5423	-177.393478	5.626060	2.910836
D:	1199.89	-1617	-748	-16398	41	111	27	2632	-87	-5423	-177.393478	5.677709	2.424719
D:	1203.51	-1611	-659	-16191	93	120	-7	2632	-87	-5423	-177.674500	4.987747	2.574903
D:	1207.12	-1451	-693	-16612	100	91	41	2619	-59	-5302	-177.616425	5.492553	3.072036
D:	1210.71	-1565	-694	-16261	28	22	-24	2619	-59	-5302	-177.561401	5.327693	3.514515
D:	1214.25	-1537	-775	-16464	28	39	0	2619	-59	-5302	-177.310165	5.607277	3.163176
D:	1217.88	-1607	-715	-16353	56	39	0	2619	-59	-5302	-177.501694	5.607247	2.778306
D:	1221.65	-1590	-646	-16262	55	151	4	2619	-59	-5302	-177.730392	5.580076	3.327468
D:	1225.41	-1505	-739	-16398	14	62	-8	2619	-59	-5302	-177.424850	5.238753	3.327468
D:	1229.25	-1410	-780	-16314	46	96	29	2619	-59	-5302	-177.267899	4.934269	3.181647
D:	1232.92	-1642	-684	-16325	61	100	-87	2619	-80	-5234	-177.606003	5.738771	2.546802
D:	1236.49	-1358	-748	-16445	-38	48	3	2619	-80	-5234	-177.400925	4.715962	2.973217
D:	1240.02	-1539	-741	-16324	-5	88	-62	2619	-80	-5234	-177.400925	5.380483	2.909030
D:	1243.57	-1539	-741	-16324	7	126	15	2619	-80	-5234	-177.406174	5.127084	2.294739
D:	1247.14	-1516	-656	-16884	69	119	90	2619	-80	-5234	-177.780228	5.396849	2.671000
D:	1250.75	-1546	-702	-16350	6	134	0	2619	-80	-5234	-177.546692	5.782227	2.957971
D:	1254.42	-1638	-701	-16161	6	168	-27	2620	-69	-5340	-177.521515	4.745003	3.274892
D:	1258.15	-1392	-765	-16753	9	189	-60	2620	-69	-5340	-177.390717	4.744991	3.025956
D:	1261.80	-1532	-717	-16415	-37	189	-60	2620	-69	-5340	-177.504181	5.327035	2.799303
D:	1265.61	-1585	-678	-16320	-24	165	-11	2620	-69	-5340	-177.626297	5.542587	2.834041
D:	1269.40	-1462	-762	-16334	-32	143	37	2620	-69	-5340	-177.334244	5.109342	3.167219
D:	1273.07	-1637	-737	-16456	-42	264	-7	2622	-81	-5409	-177.440903	5.675460	2.933249
D:	1276.77	-1453	-731	-16450	30	194	-37	2622	-81	-5409	-177.460815	5.042934	2.952255
D:	1280.31	-1456	-653	-16464	4	197	-77	2622	-81	-5409	-177.733948	5.050025	2.474334
D:	1284.04	-1614	-624	-16391	54	136	12	2622	-81	-5409	-177.733948	5.619831	2.277351
D:	1287.77	-1614	-624	-16391	116	123	90	2622	-81	-5409	-177.825073	5.125775	2.914681
D:	1291.30	-1475	-725	-16428	65	27	-93	2615	-72	-5174	-177.478302	5.873445	2.734945
D:	1294.88	-1675	-697	-16268	19	31	13	2615	-72	-5174	-177.551895	5.269900	2.728593
D:	1298.50	-1508	-691	-16335	65	84	-20	2615	-72	-5174	-177.582962	5.444120	2.507965
D:	1302.21	-1583	-666	-16597	65	67	-10	2615	-72	-5174	-177.707336	5.459911	2.793522
D:	1306.09	-1577	-711	-16484	24	194	16	2615	-72	-5174	-177.535446	5.459887	3.159872
D:	1309.79	-1440	-771	-16574	48	194	16	2615	-72	-5174	-177.341843	4.960372	3.413234
D:	1313.40	-1566	-726	-16216	62	39	48	2627	-61	-5253	-177.441772	5.510699	3.193207
D:	1316.98	-1507	-745	-16402	44	23	-64	2627	-61	-5253	-177.404572	5.244320	3.279937
D:	1320.65	-1458	-680	-16383	-52	231	-55	2627	-61	-5253	-177.628464	5.081420	2.914612
D:	1324.19	-1597	-620	-16395	84	98	-17	2627	-61	-5253	-177.628464	5.559716	2.521672
D:	1327.73	-1597	-620	-16395	139	55	35	2627	-61	-5253	-177.839569	5.205744	3.056878
D:	1331.48	-1505	-711	-16504	-42	80	51	2618	-89	-5417	-177.538437	6.027099	2.633122
D:	1335.28	-1727	-709	-16342	46	121	24	2618	-89	-5417	-177.521011	5.680419	2.373989
D:	1338.85	-1603	-652	-16103	46	219	1	2618	-89	-5417	-177.686646	5.010515	2.924531
D:	1342.40	-1450	-752	-16522	46	132	-11	2618	-89	-5417	-177.399216	5.516094	1.963398
D:	1346.07	-1561	-585	-16147	38	132	-11	2618	-89	-5417	-177.930359	5.518435	2.659621
D:	1349.74	-1441	-710	-16574	-6	201	59	2618	-89	-5417	-177.552292	4.964611	2.387572
D:	1353.26	-1528	-641	-16301	-69	232	32	2620	-102	-5414	-177.753372	5.351110	2.038355
D:	1356.87	-1532	-753	-16422	77	95	5	2620	-102	-5414	-177.379883	5.324264	2.688802
D:	1360.40	-1458	-717	-16217	41	145	53	2620	-102	-5414	-177.473663	5.132567	2.539973
D:	1363.92	-1458	-717	-16217	60	63	58	2620	-102	-5414	-177.473663	5.191335	2.433982
D:	1367.64	-1499	-712	-16484	43	28	84	2620	-102	-5414	-177.531967	4.626110	2.225056
D:	1371.29	-1340	-674	-16547	83	79	50	2620	-64	-5361	-177.672729	5.545706	2.922241
D:	1374.93	-1600	-687	-16465	57	56	-15	2620	-64	-5361	-177.615952	5.379521	3.779151
D:	1378.49	-1534	-820	-16270	16	105	49	2627	-64	-5361	-177.119980	4.908633	3.006368
D:	1382.03	-1415	-693	-16462	16	108	10	2627	-64	-5361	-177.594681	4.908633	4.396268
D:	1385.79	-1524	-928	-16390	19	108	10	2627	-64	-5361	-176.764587	5.303999	2.693891
D:	1389.54	-1420	-654	-16818	34	149	21	2627	-64	-5361	-177.778305	4.822742	2.693891
D:	1393.26	-1549	-609	-16241	41	172	-58	2627	-64	-5361	-177.857803	5.444513	1.598623
D:	1396.86	-1690	-676	-16255	35	142	-1	2626	-112	-5309	-177.623840	5.930688	1.969736
D:	1400.41	-1516	-777	-16489	19	96	-15	2626	-112	-5309	-177.307312	5.247375	2.548961
D:	1404.07	-1617	-651	-16237	165	6	-6	2626	-112	-5309	-177.307312	5.682816	1.838985
D:	1407.80	-1617	-651	-16237	147	52	-82	2626	-112	-5309	-177.709274	5.480249	1.866099
D:	1411.55	-1581	-663	-16466	120	17	-27	2626	-112	-5309	-177.699478	4.984260	2.472067
D:	1415.30	-1417	-749	-16231	109	36	12	2619	-54	-5249	-177.363113	5.518178	2.705189
D:	1419.17	-1577	-625	-16312	82	132	23	2619	-54	-5249	-177.811005	4.680511	3.334333
D:	1422.80	-1362	-732	-16620	164	139	-38	2619	-54	-5249	-177.483383	5.884477	2.891801
D:	1426.62	-1681	-661	-16297	111	70	34	2619	-54	-5249	-177.682617	5.308292	3.382246
D:	1430.32	-1545	-750	-16612	111	77	-2	2619	-54	-5249	-177.420197	5.308292	3.802208
D:	1434.15	-1512	-819	-16586	120	107	2	2619	-54	-5249	-177.178314	5.202606	1.835642
D:	1437.72	-1585	-587	-16002	99	107	2	2632	-97	-5399	-177.904419	5.653092	1.835642
D:	1441.24	-1515	-666	-16674	0	154	-71	2632	-97	-5399	-177.717926	5.187680	2.183614
D:	1444.77	-1529	-708	-16302	32	213	-59	2632	-97	-5399	-177.518433	5.353362	2.517428
D:	1448.50	-1478	-713	-16660	-42	161	-4	2632	-97	-5399	-177.554642	5.065288	2.475403
D:	1452.41	-1516	-730	-16454	101	70	4	2632	-97	-5399	-177.464920	5.259132	2.616768
D:	1456.02	-1598	-793	-16281	33	100	36	2623	-46	-5318	-177.464920	5.599265	3.890291
D:	1459.60	-1598	-793	-16281	119	40	37	2623	-46	-5318	-177.216721	4.852473	3.532413
D:	1463.14	-1406	-732	-16546	-2	121	16	2623	-46	-5318	-177.472107	5.613180	3.018300
D:	1466.78	-1605	-648	-16318	29	79	-30	2623	-46	-5318	-177.731171	5.540634	2.918696
D:	1470.40	-1586	-631	-16338	29	89	77	2623	-46	-5318	-177.793472	5.392980	3.037824
D:	1473.93	-1558	-655	-16491	97	89	77	2623	-46	-5318	-177.730728	5.392976	2.656007
D:	1477.50	-1541	-717	-16169	59	120	50	2614	-69	-5374	-177.466156	5.439026	3.111694
D:	1481.09	-1315	-781	-16680	9	219	-117	2614	-69	-5374	-177.324448	4.502920	3.448196
D:	1484.81	-1471	-685	-16291	56	138	-51	2614	-69	-5374	-177.597504	5.155167	2.909170
D:	1488.68	-1393	-727	-16331	167	158	-14	2614	-69	-5374	-177.456314	4.870751	3.180429
D:	1492.41	-1566	-662	-16532	42	211	-34	2614	-69	-5374	-177.712128	5.407070	2.690505
D:	1496.25	-1403	-606	-16149	153	126	-64	2629	-66	-5301	-177.856186	4.961972	2.471480
D:	1499.98	-1614	-665	-16516	123	102	-14	2629	-66	-5301	-177.856186	5.577091	2.693506
D:	1503.54	-1614	-665	-16516	123	13	32	2629	-66	-5301	-177.699524	5.681793	3.120269
D:	1507.14	-1648	-741	-16548	82	113	-10	2629	-66	-5301	-177.441315	5.042902	3.299313
D:	1511.12	-1447	-754	-16381	148	34	9	2629	-66	-5301	-177.369812	5.162194	3.039933
D:	1514.84	-1493	-718	-16511	129	5	78	2629	-66	-5369	-177.515213	5.739861	2.150466
D:	1518.73	-1629	-620	-16195	163	57	65	2631	-87	-5369	-177.812851	4.864620	2.673069
D:	1522.40	-1419	-716	-16658	163	71	38	2631	-87	-5369	-177.544037	5.965044	2.748521
D:	1526.01	-1737	-741	-16608	75	71	38	2631	-87	-5369	-177.450562	5.965037	2.438302
D:	1529.73	-1468	-666	-16316	158	110	-39	2631	-87	-5369	-177.667786	5.137128	2.768207
D:	1533.56	-1518	-732	-16547	173	91	-36	2631	-87	-5369	-177.472244	5.236630	3.488293
D:	1537.20	-1534	-691	-16129	141	62	-42	2631	-51	-5480	-177.552078	5.428167	3.350475
D:	1540.95	-1583	-720	-16355	91	114	-24	2630	-51	-5480	-177.484528	5.523282	3.458552
D:	1544.57	-1618	-682	-16159	8	138	18	2630	-51	-5480	-177.588486	5.713082	3.260298
D:	1548.16	-1654	-695	-16386	54	132	49	2630	-51	-5480	-177.576538	5.758930	3.276623
D:	1551.92	-1654	-681	-16502	69	90	96	2630	-51	-5480	-177.576538	4.972718	3.236415
D:	1555.53	-1437	-681	-16502	22	71	-7	2630	-51	-5480	-177.642105	5.522468	3.425226
D:	1559.07	-1575	-711	-16275	34	236	-2	2626	-100	-5239	-177.503754	4.525402	2.492719
D:	1562.60	-1293	-723	-16321	56	194	-74	2626	-100	-5239	-177.468765	4.947950	2.134302
D:	1566.15	-1431	-676	-16516	56	79	-39	2626	-100	-5239	-177.661438	4.947950	2.157014
D:	1569.71	-1608	-675	-16224	108	79	-39	2626	-100	-5239	-177.622818	5.655544	2.157014
D:	1573.25	-1522	-738	-16354	33	176	-21	2626	-100	-5239	-177.421417	5.311751	2.517545
D:	1576.91	-1606	-613	-16321	36	174	17	2626	-100	-5239	-177.854294	5.616092	2.411618
D:	1580.52	-1417	-750	-16472	63	87	28	2625	-63	-5177	-177.398254	4.911832	3.229011
D:	1584.12	-1429	-514	-16476	206	161	48	2625	-63	-5177	-177.398254	4.954733	1.841600
D:	1587.84	-1429	-514	-16476	72	74	43	2625	-63	-5177	-178.218384	5.232191	3.346490
D:	1591.50	-1496	-768	-16319	23	83	68	2625	-63	-5177	-177.310776	4.812901	3.321742
D:	1595.03	-1377	-758	-16337	77	11	97	2625	-63	-5177	-177.348740	5.382649	3.071704
D:	1598.73	-1547	-727	-16403	148	34	51	2625	-63	-5177	-177.467484	5.311997	2.192322
D:	1602.47	-1520	-661	-16335	30	44	-8	2629	-98	-5371	-177.688019	5.761226	2.784156
D:	1606.16	-1656	-768	-16396	30	9	64	2629	-98	-5371	-177.323425	5.761226	2.167254
D:	1609.83	-1491	-654	-16286	92	9	64	2629	-98	-5371	-177.705643	5.226870	2.655320
D:	1613.49	-1517	-754	-16732	104	37	-43	2629	-98	-5371	-177.425034	5.175464	2.655320
D:	1617.09	-1596	-679	-16418	120	3	-31	2629	-98	-5371	-177.636993	5.547750	2.930062
D:	1620.62	-1440	-733	-16416	85	57	66	2624	-54	-5158	-177.448593	5.008296	3.290152
D:	1624.17	-1628	-727	-16579	153	79	88	2624	-54	-5158	-177.448593	5.603081	3.161074
D:	1627.76	-1628	-727	-16579	175	69	107	2624	-54	-5158	-177.494370	5.727813	3.702630
D:	1631.31	-1656	-820	-16490	185	96	5	2624	-54	-5158	-177.158417	4.907380	3.292204
D:	1635.29	-1419	-736	-16511	93	113	73	2624	-54	-5158	-177.452896	5.255167	3.657252
D:	1639.15	-1517	-803	-16474	86	155	26	2613	-85	-5411	-177.214645	5.075064	2.824997
D:	1642.94	-1454	-717	-16357	79	66	29	2613	-85	-5411	-177.495300	4.916939	3.043463
D:	1646.55	-1421	-757	-16501	37	138	-17	2613	-85	-5411	-177.378571	5.573341	3.260926
D:	1650.15	-1580	-787	-16173	37	155	7	2613	-85	-5411	-177.219345	5.573341	2.569294
D:	1653.76	-1561	-681	-16389	21	155	7	2613	-85	-5411	-177.625839	5.436324	2.495233
D:	1657.55	-1734	-670	-16231	119	22	90	2613	-85	-5411	-177.641464	6.092958	3.052378
D:	1661.30	-1333	-771	-16394	-13	55	22	2618	-57	-5501	-177.312622	4.643534	3.725049
D:	1665.28	-1469	-784	-16495	94	114	-51	2618	-57	-5501	-177.284042	5.083622	3.775633
D:	1669.16	-1485	-768	-16367	3	216	-74	2618	-57	-5501	-177.318680	5.178814	3.703950
D:	1672.82	-1323	-719	-16630	101	47	24	2618	-57	-5501	-177.529572	4.544494	3.395177
D:	1676.71	-1510	-729	-16345	-220	28	38	2618	-57	-5501	-177.451492	5.273117	2.976896
D:	1680.27	-1434	-727	-16299	50	51	-64	2612	-78	-5359	-177.451294	5.023165	2.998737
D:	1684.05	-1445	-514	-16594	114	105	-16	2612	-78	-5359	-177.451294	4.974516	1.642784
D:	1687.62	-1445	-514	-16594	109	88	15	2612	-78	-5359	-178.231094	5.177959	3.020117
D:	1691.14	-1477	-732	-16283	178	156	-23	2612	-78	-5359	-177.431244	5.390356	2.969062
D:	1694.74	-1579	-746	-16718	148	130	23	2612	-78	-5359	-177.450256	5.528347	2.698898
D:	1698.31	-1585	-687	-16362	148	118	-18	2612	-78	-5359	-177.600937	5.528347	2.981337
D:	1701.91	-1579	-720	-16428	77	118	-18	2612	-78	-5497	-177.495712	5.485126	2.379081
D:	1705.55	-1460	-511	-15537	103	182	-139	2620	-51	-5497	-178.121506	5.365551	2.379081
D:	1709.28	-1529	-717	-16589	72	64	-34	2620	-51	-5497	-177.530380	5.261316	3.427292
D:	1713.00	-1504	-690	-16564	146	63	-38	2620	-51	-5497	-177.619858	5.183873	3.277275
D:	1716.81	-1565	-626	-16070	163	46	-10	2620	-51	-5497	-177.774429	5.558267	2.971975
D:	1720.39	-1680	-914	-16577	119	166	-22	2620	-51	-5497	-176.849319	5.778350	4.554938
D:	1723.92	-1680	-655	-15764	93	197	-95	2612	-77	-5385	-176.849319	5.189801	2.718295
D:	1727.56	-1433	-655	-15764	134	43	-22	2612	-77	-5385	-177.625946	5.401566	3.314420
D:	1731.19	-1576	-795	-16649	84	41	-126	2612	-77	-5385	-177.271393	4.779799	3.294878
D:	1734.95	-1419	-796	-16952	105	89	-4	2612	-77	-5385	-177.316818	5.793281	2.807554
D:	1738.93	-1620	-685	-15953	183	136	-38	2612	-77	-5385	-177.546555	4.625048	3.083869
D:	1742.75	-1340	-740	-16548	107	62	-111	2612	-77	-5385	-177.444778	5.186483	3.384798
D:	1746.42	-1503	-771	-16541	-149	44	-149	2617	-69	-5412	-177.336517	5.146581	3.031780
D:	1750.01	-1475	-704	-16359	-3	129	53	2617	-69	-5412	-177.541077	5.147524	3.431218
D:	1753.72	-1335	-787	-16967	70	129	53	2617	-69	-5412	-177.349518	4.494207	2.542665
D:	1757.46	-1662	-626	-16193	92	40	-36	2617	-69	-5412	-177.791367	5.855973	2.615556
D:	1761.32	-1509	-770	-17677	59	131	65	2617	-69	-5412	-177.511047	4.874778	3.093434
D:	1765.09	-1438	-934	-15333	119	159	53	2615	-69	-5388	-176.519379	5.348095	4.762954
D:	1769.02	-1397	-248	-16069	42	262	-225	2615	-69	-5388	-179.121078	4.968221	0.264007
D:	1772.64	-1576	-738	-16948	153	-91	12	2615	-69	-5388	-177.511856	5.307831	3.053403
D:	1776.17	-1522	-561	-16035	125	89	24	2615	-69	-5388	-177.511856	5.418985	2.197823
D:	1779.72	-1522	-561	-16035	133	156	-16	2615	-69	-5388	-178.001526	4.742354	3.413390
D:	1783.25	-1377	-773	-16581	21	75	35	2598	-57	-5335	-177.336044	5.067307	3.728893
D:	1786.87	-1473	-798	-16593	-13	68	-32	2598	-57	-5335	-177.251846	5.533740	3.328812
D:	1790.51	-1562	-717	-16107	-56	101	225	2598	-57	-5335	-177.456406	5.437115	3.824186
D:	1794.14	-1547	-803	-16234	-56	72	17	2598	-57	-5335	-177.173447	5.437050	2.429796
D:	1797.75	-1495	-571	-16239	118	72	17	2598	-57	-5335	-177.991440	5.256880	2.443958
D:	1801.39	-1461	-839	-16496	103	52	-42	2598	-57	-5335	-177.093643	5.054954	3.670367
D:	1805.18	-1660	-745	-16713	93	37	21	2605	-75	-5346	-177.452911	5.666812	2.993350
D:	1808.89	-1343	-690	-16087	65	140	57	2605	-75	-5346	-177.549225	4.767967	2.902861
D:	1812.48	-1633	-770	-16427	1	15	40	2605	-75	-5346	-177.321503	5.671074	3.217408
D:	1816.14	-1490	-944	-16606	85	52	65	2605	-75	-5346	-177.321503	5.119155	4.255757
D:	1819.72	-1490	-944	-16606	104	70	-22	2605	-75	-5346	-176.751633	4.672550	3.145328
D:	1823.29	-1346	-744	-16452	75	30	-30	2605	-62	-5442	-177.415939	6.044466	3.866566
D:	1826.92	-1787	-855	-16855	-12	297	-92	2605	-62	-5442	-177.101273	4.851972	2.239656
D:	1830.50	-1316	-517	-15495	-61	113	31	2605	-62	-5442	-178.094254	3.999948	4.952534
D:	1834.57	-1168	-982	-16675	185	-20	-1	2605	-62	-5442	-176.634933	5.639429	2.704076
D:	1838.97	-1661	-648	-16809	141	30	59	2605	-62	-5442	-177.797531	5.123685	2.524780
D:	1843.34	-1421	-576	-15838	254	38	27	2601	-67	-5309	-177.922409	4.850094	3.786920
D:	1847.67	-1433	-853	-16867	120	-1	65	2601	-67	-5309	-177.110107	4.952540	4.774392
D:	1852.08	-1714	-678	-16221	177	-39	35	2601	-67	-5309	-177.611801	6.026759	2.818458
D:	1856.09	-1714	-829	-16373	106	66	58	2601	-67	-5309	-177.611801	5.968801	3.674370
D:	1859.87	-1252	-688	-16649	38	25	-200	2601	-67	-5309	-177.106689	4.297005	2.913905
D:	1863.63	-1252	-688	-16649	43	-7	-45	2601	-67	-5217	-177.638901	5.518611	3.415792
D:	1867.20	-1566	-781	-16190	10	30	31	2600	-61	-5217	-177.243454	5.594740	2.690625
D:	1870.87	-1609	-650	-16413	82	-9	-104	2600	-61	-5217	-177.737350	5.125118	3.130408
D:	1874.70	-1465	-714	-16319	26	-19	29	2600	-61	-5217	-177.499985	4.944662	3.599428
D:	1878.52	-1441	-805	-16637	74	-73	-47	2600	-61	-5217	-177.235077	4.490558	4.500952
D:	1882.09	-1302	-944	-16552	74	3	-56	2600	-61	-5217	-176.741028	4.490558	3.180062
D:	1885.75	-1358	-711	-16175	-249	3	-56	2600	-61	-5217	-177.488312	4.794644	3.404153
D:	1889.32	-1522	-802	-16300	67	9	34	2614	-53	-5338	-177.188416	5.328231	3.866737
D:	1893.00	-1440	-757	-16432	58	101	-30	2614	-53	-5338	-177.367569	5.003125	3.592817
D:	1896.59	-1297	-739	-16197	142	144	-15	2614	-53	-5338	-177.392883	4.573677	3.593580
D:	1900.25	-1406	-703	-16543	79	2	-21	2614	-53	-5338	-177.571915	4.853714	3.252847
D:	1904.14	-1581	-773	-16471	89	-35	57	2614	-53	-5338	-177.318253	5.477016	3.628706
D:	1907.92	-1344	-719	-16186	47	40	76	2601	-52	-5315	-177.318253	4.742135	3.472207
D:	1911.61	-1344	-719	-16186	90	6	38	2601	-52	-5315	-177.461746	5.404931	3.328851
D:	1915.23	-1539	-709	-16251	142	-102	-44	2601	-52	-5315	-177.507111	5.014427	4.259735
D:	1918.81	-1465	-878	-16674	138	-183	-10	2601	-52	-5315	-176.990997	4.767231	3.789747
D:	1922.39	-1390	-793	-16649	138	-152	-43	2601	-52	-5315	-177.278275	5.719620	3.598478
D:	1926.06	-1625	-757	-16207	225	-176	-1	2601	-52	-5315	-177.330978	5.719618	3.100649
D:	1929.79	-1383	-759	-16552	209	-176	-1	2613	-81	-5374	-177.379745	4.771397	3.014655
D:	1933.39	-1653	-791	-16400	174	-110	-2	2613	-81	-5374	-177.243896	5.749089	3.246552
D:	1936.92	-1297	-692	-16257	90	-76	120	2613	-81	-5374	-177.567825	4.557479	2.787766
D:	1940.61	-1500	-792	-16534	128	-96	19	2613	-81	-5374	-177.262787	5.178053	3.267123
D:	1944.41	-1556	-695	-16227	200	-79	-110	2613	-81	-5374	-177.552780	5.472496	3.619067
D:	1948.25	-1333	-798	-16434	89	142	-1	2619	-33	-5382	-177.225250	4.631945	4.284026
D:	1952.12	-1577	-757	-16246	55	95	-54	2619	-33	-5382	-177.225250	5.538526	3.981281
D:	1955.72	-1577	-757	-16246	220	97	20	2619	-33	-5382	-177.337402	4.812650	4.768843
D:	1959.40	-1391	-885	-16498	157	97	-1	2619	-33	-5382	-176.934647	5.220307	4.108719
D:	1963.19	-1511	-785	-16520	72	227	-93	2619	-33	-5382	-177.284683	4.907499	3.834449
D:	1966.87	-1421	-734	-16534	85	73	57	2619	-33	-5382	-177.463364	5.121944	3.459544
D:	1970.53	-1477	-741	-16462	87	111	0	2609	-55	-5358	-177.427933	5.501758	3.214280
D:	1974.18	-1553	-691	-16109	87	30	11	2609	-55	-5358	-177.549026	5.501758	3.449564
D:	1977.80	-1419	-742	-16612	148	30	11	2609	-55	-5358	-177.447723	4.877668	3.449564
D:	1981.32	-1499	-740	-16525	180	-30	42	2609	-55	-5358	-177.441193	5.178166	3.430969
D:	1985.29	-1446	-813	-16339	154	-117	16	2609	-55	-5358	-177.156631	5.051427	3.930653
D:	1989.13	-1428	-743	-16467	216	-1	58	2619	-53	-5319	-177.421768	4.951361	3.484409
D:	1992.80	-1591	-719	-16409	311	-21	108	2619	-53	-5319	-177.496292	5.532917	3.300655
D:	1996.54	-1576	-745	-16268	336	-137	70	2619	-53	-5319	-177.383179	5.527799	3.493285
D:	2000.10	-1587	-724	-16201	341	-145	47	2619	-53	-5319	-177.383179	5.589291	3.379931
D:	2003.75	-1587	-724	-16201	389	-159	-18	2619	-53	-5319	-177.446487	4.966452	4.303068
D:	2007.32	-1428	-877	-16410	357	-117	-14	2619	-54	-5348	-176.946060	5.244606	4.290427
D:	2010.92	-1511	-881	-16438	348	-181	13	2619	-54	-5348	-176.937347	5.337876	3.712397
D:	2014.57	-1530	-782	-16357	299	-76	-37	2619	-54	-5348	-177.268112	4.600038	4.202137
D:	2018.30	-1324	-853	-16434	299	-72	-38	2619	-54	-5348	-177.033966	4.600038	3.203737
D:	2021.95	-1790	-714	-16441	389	-72	-38	2619	-54	-5348	-177.518555	6.207934	3.909448
D:	2025.52	-1361	-797	-16198	328	-112	-12	2619	-54	-5348	-177.188339	4.797231	3.927223
D:	2029.11	-1475	-871	-16420	280	-54	-21	2619	-54	-5417	-176.968811	5.126056	4.455550
D:	2032.83	-1715	-666	-16292	347	-36	36	2620	-46	-5417	-177.664352	6.004388	3.163254
D:	2036.63	-1475	-869	-16241	288	85	67	2620	-46	-5417	-176.942444	5.182120	4.494114
D:	2040.20	-1618	-836	-16446	183	113	61	2620	-46	-5417	-177.095215	5.611791	4.176911
D:	2043.80	-1618	-836	-16446	208	-18	-22	2620	-46	-5417	-177.095215	5.425478	4.284669
D:	2047.39	-1547	-841	-16267	295	-42	8	2620	-46	-5417	-177.045685	5.178446	2.945786
D:	2051.12	-1470	-615	-16209	371	97	18	2622	-38	-5334	-177.832367	4.920397	4.614197
D:	2054.77	-1421	-884	-16483	307	92	-15	2622	-38	-5334	-176.935333	5.341491	4.062264
D:	2058.40	-1512	-784	-16153	307	66	113	2622	-38	-5334	-177.226517	5.341491	4.535243
D:	2062.00	-1543	-878	-16441	286	-21	-56	2622	-38	-5334	-176.948349	5.354120	4.522715
D:	2065.84	-1571	-882	-16528	314	-21	-56	2622	-38	-5334	-176.950577	5.422189	4.867218
D:	2069.78	-1513	-915	-16103	244	31	21	2622	-38	-5334	-176.753067	5.359183	4.642063
D:	2073.40	-1356	-942	-16484	289	-18	68	2623	-50	-5234	-176.734512	4.695166	4.673722
D:	2077.02	-1706	-873	-16282	340	-51	28	2623	-50	-5234	-176.936111	5.973186	4.177850
D:	2080.90	-1591	-846	-16505	283	-41	89	2623	-50	-5234	-177.070969	5.499004	4.007033
D:	2084.62	-1495	-911	-16488	297	-90	-15	2623	-50	-5234	-176.842712	5.173261	4.428632
D:	2088.20	-1378	-856	-16280	297	-113	-5	2623	-50	-5234	-176.995392	4.831697	4.211511
D:	2091.96	-1378	-832	-16312	328	-120	-59	2620	-30	-5393	-176.995392	5.149917	4.524596
D:	2095.70	-1472	-832	-16312	377	-199	-141	2620	-30	-5393	-177.085358	5.702642	5.236846
D:	2099.44	-1621	-957	-16205	275	-116	-54	2620	-30	-5393	-176.625488	4.982087	4.957615
D:	2102.99	-1455	-919	-16666	308	-113	1	2620	-30	-5393	-176.848984	5.695796	4.358780
D:	2106.91	-1651	-827	-16533	340	-29	38	2620	-30	-5393	-177.141602	5.506090	5.104578
D:	2110.89	-1571	-934	-16271	305	-68	39	2620	-30	-5468	-176.719894	4.946811	5.233703
D:	2114.64	-1438	-865	-16592	415	-65	64	2636	-1	-5468	-177.020874	5.607958	5.887011
D:	2118.54	-1605	-976	-16317	333	14	53	2636	-1	-5468	-176.582138	5.793354	5.108095
D:	2122.26	-1670	-857	-16438	333	-14	86	2636	-1	-5468	-177.020782	5.720506	4.969341
D:	2126.09	-1639	-827	-16341	262	-97	68	2636	-1	-5468	-177.108017	5.720500	5.267165
D:	2129.87	-1373	-851	-16283	366	-97	68	2636	-1	-5468	-177.013489	4.813444	4.863121
D:	2133.56	-1603	-885	-16365	284	-37	-31	2627	-21	-5323	-176.909744	5.586498	4.890827
D:	2137.14	-1545	-835	-16373	293	95	107	2627	-21	-5323	-177.085754	5.383824	4.592288
D:	2140.90	-1585	-832	-16144	340	-2	112	2627	-21	-5323	-177.055008	5.600047	4.616345
D:	2144.65	-1660	-854	-16135	232	30	49	2627	-21	-5323	-176.975479	5.866054	4.715511
D:	2148.40	-1559	-880	-16540	211	-27	42	2627	-21	-5323	-176.959717	5.377181	4.806997
D:	2152.05	-1777	-888	-16277	167	207	27	2630	-28	-5309	-176.959717	6.221451	4.683197
D:	2155.83	-1777	-983	-16348	180	-22	54	2630	-28	-5309	-176.882507	5.018035	5.385756
D:	2159.54	-1438	-983	-16348	123	-67	43	2630	-28	-5309	-176.564194	4.746245	4.746969
D:	2163.09	-1380	-883	-16598	244	15	-92	2630	-28	-5309	-176.960007	5.643728	4.664362
D:	2166.66	-1618	-876	-16350	146	-148	-39	2630	-28	-5309	-176.938370	5.436106	4.809424
D:	2170.20	-1593	-916	-16715	146	-84	86	2630	-28	-5309	-176.868484	5.436106	4.956042
D:	2173.88	-1673	-914	-16295	221	-84	86	2635	-27	-5390	-176.794800	5.853028	4.683109
D:	2177.48	-1667	-867	-16286	34	-103	-93	2635	-27	-5390	-176.957901	5.836284	4.683109
D:	2181.01	-1645	-846	-16435	210	-158	-47	2635	-27	-5390	-177.058487	5.708431	4.529415
D:	2185.04	-1544	-872	-16323	291	-103	-33	2635	-27	-5390	-176.947296	5.396067	4.759619
D:	2188.80	-1536	-910	-16617	218	-196	-2	2635	-27	-5390	-176.870636	5.273453	4.687428
D:	2192.61	-1613	-816	-16050	224	-45	-45	2635	-27	-5134	-177.094742	5.731684	4.648942
D:	2196.48	-1660	-900	-16491	177	-158	26	2640	-11	-5264	-176.881378	5.739771	5.001366
D:	2200.12	-1599	-921	-16351	133	-83	14	2640	-11	-5264	-176.881378	5.576701	5.190126
D:	2203.75	-1599	-921	-16351	206	-83	-29	2640	-11	-5264	-176.781326	5.340477	4.995690
D:	2207.27	-1536	-885	-16408	264	-65	-255	2640	-11	-5264	-176.917847	5.129035	5.187065
D:	2210.84	-1474	-912	-16397	247	-19	108	2640	-11	-5264	-176.821716	5.529356	5.062697
D:	2214.57	-1573	-891	-16225	236	-73	39	2640	-11	-5264	-176.861954	4.929043	5.771321
D:	2218.16	-1461	-998	-16912	236	-244	39	2646	-2	-5343	-176.628036	4.929043	4.800711
D:	2221.88	-1833	-829	-16195	224	-244	39	2646	-2	-5343	-177.074890	6.449250	5.004112
D:	2225.66	-1669	-863	-16473	208	-22	108	2646	-2	-5343	-177.006302	5.777614	5.084649
D:	2229.47	-1660	-867	-16269	168	73	1	2646	-2	-5343	-176.954727	5.817959	5.084649
D:	2233.14	-1542	-869	-16456	120	5	74	2646	-2	-5343	-176.982391	5.345989	5.100622
D:	2236.79	-1783	-979	-16361	81	90	60	2638	1	-5254	-176.580856	6.208639	5.636983
D:	2240.32	-1616	-835	-16135	142	54	59	2638	1	-5254	-177.042755	5.711958	4.949535
D:	2243.91	-1616	-878	-16832	153	75	182	2638	1	-5254	-177.042755	4.829360	5.112516
D:	2247.70	-1424	-878	-16832	156	-71	113	2638	1	-5254	-177.019226	5.392987	4.715083
D:	2251.40	-1554	-803	-16442	206	25	63	2638	1	-5254	-177.209213	5.500607	5.595259
D:	2255.03	-1575	-951	-16328	157	-36	53	2649	8	-5307	-176.671860	5.955762	5.128222
D:	2258.75	-1692	-849	-16197	101	34	-44	2649	8	-5307	-177.004669	5.113173	6.015773
D:	2262.56	-1470	-990	-16399	94	-14	-41	2649	8	-5307	-176.550476	5.786810	5.266589
D:	2266.27	-1707	-902	-16820	94	-102	-36	2649	8	-5307	-176.935562	5.786810	4.958746
D:	2269.87	-1585	-811	-16191	224	-102	-36	2649	8	-5307	-177.137695	5.584301	5.055368
D:	2273.51	-1391	-909	-16221	180	-55	-22	2649	8	-5307	-176.797791	4.893801	5.540148
D:	2277.17	-1616	-948	-16218	97	34	-233	2651	12	-5260	-176.659866	5.680840	5.767414
D:	2280.91	-1646	-993	-16554	176	-62	22	2651	12	-5260	-176.572403	5.668424	5.913429
D:	2284.81	-1571	-818	-16547	196	-112	48	2651	12	-5260	-177.175125	5.417085	4.953246
D:	2288.53	-1439	-995	-16281	130	-2	-80	2651	12	-5260	-176.507980	5.041767	6.124360
D:	2292.16	-1554	-962	-16449	247	63	-81	2651	12	-5260	-176.658142	5.387939	5.816734
D:	2295.75	-1554	-962	-16449	102	11	18	2654	-7	-5251	-176.658142	6.022971	4.913829
D:	2299.44	-1718	-872	-16260	99	78	-29	2654	-7	-5251	-176.935471	5.072211	5.763508
D:	2303.22	-1432	-985	-16104	109	-23	11	2654	-7	-5251	-176.505081	5.774962	5.734838
D:	2306.85	-1635	-1001	-16136	160	81	-37	2654	-7	-5251	-176.455399	5.690767	5.620096
D:	2310.54	-1652	-1004	-16548	99	188	-49	2654	-7	-5251	-176.533218	5.711950	5.301396
D:	2314.22	-1624	-929	-16210	99	77	76	2654	-7	-5251	-176.725159	4.570155	5.889039
D:	2318.00	-1321	-1043	-16494	214	169	136	2665	-20	-5354	-176.386917	5.239422	5.372676
D:	2321.81	-1510	-970	-16434	210	169	136	2665	-20	-5354	-176.627304	5.240834	5.261591
D:	2325.43	-1715	-874	-16304	183	86	117	2665	-20	-5354	-176.936737	5.996429	4.749723
D:	2329.05	-1647	-1012	-16267	172	111	-66	2665	-20	-5354	-176.445328	5.770467	5.596716
D:	2332.60	-1561	-899	-16498	124	143	-25	2665	-20	-5354	-176.886185	5.397293	5.605393
D:	2336.32	-1326	-869	-16499	100	82	20	2651	14	-5422	-176.990234	4.588703	5.555801
D:	2340.15	-1575	-828	-16203	100	114	51	2651	14	-5422	-177.079865	5.544923	5.253231
D:	2344.02	-1201	-862	-16608	-3	76	-57	2651	14	-5422	-177.079865	4.130700	5.553870
D:	2347.73	-1201	-862	-16608	-16	110	-8	2651	14	-5422	-177.034088	3.404409	4.857396
D:	2351.68	-987	-729	-16576	59	167	21	2651	14	-5422	-177.487030	5.022586	7.128484
D:	2355.40	-1420	-1119	-16119	81	85	-6	2651	14	-5166	-176.034042	5.553206	4.296419
D:	2359.09	-1590	-702	-16339	108	122	29	2654	2	-5177	-177.545044	6.645075	4.555747
D:	2362.77	-1908	-809	-16358	-29	25	-39	2654	2	-5177	-177.173920	5.191474	6.897788
D:	2366.39	-1488	-1184	-16335	227	45	-32	2654	2	-5177	-175.859512	5.903697	4.955300
D:	2370.02	-1694	-864	-16363	37	75	-50	2654	2	-5177	-176.982681	5.902571	4.469973
D:	2373.87	-1835	-782	-16201	81	75	-50	2654	2	-5177	-177.241776	6.454783	4.693589
D:	2377.64	-1440	-797	-16335	78	65	-67	2654	2	-5177	-177.211945	5.032038	5.035061
D:	2381.26	-1611	-980	-16335	63	64	-26	2638	18	-5318	-176.571915	5.622566	6.105748
D:	2384.85	-1566	-1019	-16422	-77	186	-64	2638	18	-5318	-176.454514	5.437014	6.334209
D:	2388.39	-1493	-1003	-16374	-20	240	-80	2638	18	-5318	-176.499893	5.200348	6.299691
D:	2392.03	-1396	-870	-16209	30	235	-65	2638	18	-5318	-176.499893	4.915556	5.612824
D:	2395.62	-1396	-870	-16209	-44	171	-56	2638	18	-5318	-176.932877	5.696925	5.066811
D:	2399.21	-1623	-800	-16250	-51	201	4	2653	-1	-5302	-177.186783	5.993832	5.035769
D:	2402.78	-1726	-875	-16416	-29	189	-49	2653	-1	-5302	-176.954163	5.265809	5.879504
D:	2406.55	-1502	-993	-16267	-7	269	-149	2653	-1	-5302	-176.511993	5.893769	5.134553
D:	2410.21	-1686	-884	-16309	-7	271	-173	2653	-1	-5302	-176.902634	5.201575	5.418860
D:	2413.99	-1525	-939	-16729	-19	278	-154	2653	-1	-5302	-176.792572	5.200646	5.847441
D:	2417.67	-1745	-1012	-16289	-25	278	-154	2653	-1	-5302	-176.450104	6.103136	5.832170
D:	2421.40	-1369	-986	-16566	-64	233	-150	2634	-4	-5306	-176.598999	4.715971	5.807199
D:	2425.08	-1647	-1017	-16508	-54	246	-149	2634	-4	-5306	-176.479858	5.686992	5.849393
D:	2428.91	-1422	-923	-16333	-91	224	-195	2634	-4	-5306	-176.770798	4.968055	5.473090
D:	2432.70	-1648	-957	-16543	-127	187	-195	2634	-4	-5306	-176.694382	5.679722	5.492633
D:	2436.23	-1550	-891	-16154	-127	141	-132	2634	-4	-5306	-176.848175	5.472729	5.265904
D:	2439.76	-1550	-891	-16154	-82	164	-18	2654	-5	-5196	-176.848175	4.755617	5.765384
D:	2443.39	-1358	-991	-16294	-77	124	-203	2654	-5	-5196	-176.524765	5.553081	5.153187
D:	2447.01	-1604	-916	-16473	46	219	-186	2654	-5	-5196	-176.822510	5.865290	5.332644
D:	2450.59	-1726	-973	-16774	-6	179	-105	2654	-5	-5196	-176.685394	6.163773	4.976523
D:	2454.13	-1771	-894	-16375	-6	144	22	2654	-5	-5196	-176.880234	6.163773	7.754328
D:	2457.66	-1451	-1301	-15682	46	144	22	2654	-5	-5196	-175.262695	5.268484	7.983506
D:	2461.20	-1723	-795	-17037	-176	181	-323	2632	-5	-5334	-177.333557	5.768785	4.416937
D:	2464.83	-1470	-840	-16490	80	-25	-136	2632	-5	-5334	-177.089096	5.087751	4.920642
D:	2468.64	-1651	-856	-15775	144	-10	16	2632	-5	-5334	-176.899216	5.966245	5.117784
D:	2472.46	-1659	-1066	-16762	76	-50	40	2632	-5	-5334	-176.366302	5.641220	6.058869
D:	2476.16	-1740	-820	-16396	-157	124	-7	2632	-5	-5334	-176.366302	6.050426	4.701704
D:	2479.83	-1740	-1012	-16063	-107	60	-59	2637	-23	-5276	-177.142136	5.250477	5.674173
D:	2483.64	-1479	-1012	-16063	-33	166	-47	2637	-23	-5276	-176.400223	5.492713	5.221394
D:	2487.21	-1598	-973	-16590	-7	102	-23	2637	-23	-5276	-176.648666	5.253430	4.222830
D:	2490.85	-1562	-813	-16969	-5	39	112	2637	-23	-5276	-177.262222	5.867149	4.577700
D:	2494.74	-1665	-848	-16181	197	223	60	2637	-23	-5276	-177.005249	5.457587	5.930744
D:	2498.41	-1576	-1087	-16460	197	61	38	2637	-23	-5276	-176.226929	5.462338	5.303517
D:	2502.13	-1579	-848	-16491	138	116	10	2628	16	-5334	-177.061554	5.462338	4.567730
D:	2505.72	-1564	-719	-16420	79	116	10	2628	16	-5334	-177.497971	5.435973	4.567730
D:	2509.23	-1499	-1272	-16651	166	144	-70	2628	16	-5334	-175.636734	5.129451	7.774311
D:	2512.90	-1603	-903	-16316	171	110	70	2628	16	-5334	-176.837448	5.602784	5.660096
D:	2516.95	-1355	-908	-16636	21	151	84	2628	16	-5334	-176.881088	4.649702	5.740013
D:	2520.77	-1614	-921	-16401	148	131	121	2628	16	-5334	-176.791138	5.611684	5.208863
D:	2524.50	-1528	-1025	-16448	32	132	81	2640	-6	-5205	-176.439285	5.297417	5.836846
D:	2528.35	-1589	-887	-16791	94	167	110	2640	-6	-5205	-176.981323	5.398707	4.924495
D:	2532.18	-1628	-851	-16359	51	65	178	2640	-6	-5205	-176.981323	5.675740	4.811716
D:	2535.81	-1628	-851	-16359	35	25	84	2640	-6	-5205	-177.027359	5.471333	5.710451
D:	2539.38	-1549	-989	-16142	150	154	106	2640	-6	-5205	-176.499161	5.761198	5.156093
D:	2542.99	-1613	-891	-15963	14	108	134	2627	-7	-5308	-176.810486	5.243049	5.346290
D:	2546.63	-1500	-915	-16321	45	36	129	2627	-7	-5308	-176.796417	4.661748	5.644539
D:	2550.16	-1349	-961	-16516	45	123	122	2627	-7	-5308	-176.675156	4.661748	4.945337
D:	2553.73	-1644	-853	-16181	-3	123	122	2627	-7	-5308	-176.987610	5.793562	4.945337
D:	2557.42	-1669	-910	-16521	-14	-45	42	2627	-7	-5308	-176.852463	5.760115	5.257010
D:	2561.17	-1484	-926	-16268	-77	-3	30	2627	-7	-5308	-176.747360	5.203988	5.197428
D:	2564.76	-1519	-1005	-16349	29	48	130	2645	-24	-5424	-176.487564	5.298375	5.628651
D:	2568.33	-1431	-953	-16542	-66	30	57	2645	-24	-5424	-176.707993	4.936183	5.305847
D:	2571.98	-1645	-945	-16328	-90	56	67	2645	-24	-5424	-176.707993	5.743599	5.210923
D:	2575.59	-1645	-945	-16328	1	-88	34	2645	-24	-5424	-176.692841	5.470087	5.475679
D:	2579.13	-1559	-978	-16251	39	-19	-43	2645	-24	-5424	-176.561249	5.675463	4.133984
D:	2582.73	-1626	-763	-16344	-53	24	84	2645	-24	-5424	-177.332397	5.244610	5.632588
D:	2586.26	-1546	-986	-16814	-53	52	16	2622	-8	-5359	-176.649124	6.117764	4.548525
D:	2589.86	-1740	-790	-16216	-122	52	16	2622	-8	-5359	-177.216141	6.117466	4.548525
D:	2593.38	-1463	-968	-16200	-185	78	50	2622	-8	-5359	-176.585678	5.151320	5.756368
D:	2596.95	-1421	-889	-16278	-118	44	35	2622	-8	-5359	-176.879196	4.981791	5.278454
D:	2600.55	-1562	-884	-16418	-103	167	-26	2622	-8	-5359	-176.923187	5.427079	5.039585
D:	2604.11	-1608	-947	-16216	-92	172	-1	2631	-13	-5369	-176.923187	5.653610	5.447484
D:	2607.66	-1608	-947	-16216	-111	190	35	2631	-13	-5369	-176.662979	6.037097	4.539408
D:	2611.22	-1711	-800	-16159	-212	188	58	2631	-13	-5369	-177.170944	5.228604	5.184613
D:	2614.78	-1537	-923	-16771	-197	223	32	2631	-13	-5369	-176.855087	6.000219	5.164480
D:	2618.60	-1728	-919	-16415	-204	168	1	2631	-13	-5369	-176.800827	5.269855	4.359111
D:	2622.22	-1502	-759	-16267	-204	187	11	2631	-13	-5369	-177.333817	5.269855	5.167668
D:	2625.79	-1448	-893	-16165	-230	187	11	2614	-12	-5252	-176.843262	5.111079	5.167668
D:	2629.39	-1605	-996	-16185	-207	163	-42	2614	-12	-5252	-176.483749	5.652815	5.689703
D:	2633.04	-1395	-888	-16564	-217	245	-9	2614	-12	-5252	-176.936523	4.807292	5.052960
D:	2636.62	-1577	-902	-16261	-323	239	-2	2614	-12	-5252	-176.830261	5.530965	5.129066
D:	2640.49	-1603	-893	-16364	-508	153	11	2614	-12	-5252	-176.881638	5.586689	4.656948
D:	2644.19	-1509	-873	-16432	-289	94	67	2629	-37	-5370	-176.881638	5.239734	4.561527
D:	2647.73	-1509	-873	-16432	-351	50	29	2629	-37	-5370	-176.964066	6.198197	4.810751
D:	2651.62	-1765	-925	-16226	-202	117	57	2629	-37	-5370	-176.742462	5.067440	4.548419
D:	2655.30	-1459	-867	-16431	-208	51	104	2629	-37	-5370	-176.984756	5.524546	4.715421
D:	2659.17	-1579	-898	-16301	-201	-4	45	2629	-37	-5370	-176.852036	4.857805	4.175294
D:	2662.79	-1383	-792	-16254	-239	112	22	2629	-37	-5370	-177.215607	5.349982	5.454692
D:	2666.39	-1534	-907	-16356	-495	101	36	2628	-1	-5397	-176.831192	5.349982	5.254917
D:	2669.92	-1593	-869	-16141	-257	101	36	2628	-1	-5397	-176.923508	5.628494	5.409311
D:	2673.57	-1512	-903	-16475	-260	125	69	2628	-1	-5397	-176.867950	5.235994	5.368927
D:	2677.14	-1593	-841	-16522	-286	25	57	2628	-1	-5397	-177.091293	5.500343	4.987480
D:	2680.72	-1494	-926	-16500	-263	54	49	2628	-1	-5397	-176.793076	5.165833	5.549119
D:	2684.39	-1563	-847	-16412	-295	28	78	2628	-1	-5397	-177.050873	5.433141	4.949065
D:	2688.24	-1574	-752	-16270	-343	118	45	2622	-10	-5444	-177.358902	5.520046	4.405458
D:	2691.92	-1528	-846	-16414	-201	201	-11	2622	-10	-5444	-177.358902	5.311555	4.959728
D:	2695.81	-1528	-846	-16414	-267	251	108	2622	-10	-5444	-177.054733	5.953245	4.973471
D:	2699.76	-1715	-864	-16424	-304	107	112	2622	-10	-5444	-176.993912	5.055481	5.162202
D:	2703.39	-1467	-881	-16560	-297	95	84	2622	-10	-5444	-176.959930	5.304584	4.947791
D:	2707.02	-1519	-840	-16339	-304	40	16	2615	-15	-5421	-177.062195	5.295433	5.720639
D:	2710.57	-1525	-989	-16424	-430	75	47	2615	-15	-5421	-176.559219	4.613582	5.106609
D:	2714.15	-1333	-874	-16496	-430	83	35	2615	-15	-5421	-176.972382	5.738016	4.037412
D:	2717.91	-1645	-715	-16348	-271	83	35	2615	-15	-5421	-177.500916	5.740704	4.530019
D:	2721.72	-1386	-771	-16183	-357	0	21	2615	-15	-5421	-177.277573	4.889802	4.458052
D:	2725.52	-1554	-753	-16294	-299	30	103	2615	-15	-5421	-177.359283	5.442353	3.585571
D:	2729.09	-1637	-744	-16193	-331	61	40	2628	-56	-5466	-177.374588	5.766722	3.526095
D:	2732.73	-1505	-795	-16307	-410	27	10	2628	-56	-5466	-177.214127	5.266920	3.857046
D:	2736.42	-1587	-834	-16289	-337	18	31	2628	-56	-5466	-177.074234	5.557565	4.066785
D:	2740.21	-1608	-810	-16251	-329	81	33	2628	-56	-5466	-177.151794	5.644101	3.922975
D:	2743.79	-1608	-810	-16251	-368	55	19	2628	-56	-5466	-177.151794	5.896646	3.372274
D:	2747.32	-1670	-719	-16154	-396	36	40	2633	-35	-5511	-177.456741	5.689289	4.179314
D:	2751.16	-1637	-794	-16413	-393	-42	42	2633	-35	-5511	-177.235641	5.859282	3.267464
D:	2754.93	-1671	-640	-16271	-301	-26	115	2633	-35	-5511	-177.752762	4.550477	4.471697
D:	2758.60	-1314	-822	-16490	-347	18	16	2633	-35	-5511	-177.151474	5.246523	4.293541
D:	2762.46	-1526	-813	-16599	-347	14	63	2633	-35	-5511	-177.201172	5.457788	4.137105
D:	2766.21	-1555	-775	-16257	-316	101	99	2633	-35	-5511	-177.275894	5.457783	4.163736
D:	2769.88	-1419	-835	-16370	-356	101	99	2638	-47	-5334	-177.085205	4.947929	4.603468
D:	2773.58	-1552	-916	-16319	-299	52	-4	2638	-47	-5334	-176.792511	5.424384	4.600048
D:	2777.19	-1573	-780	-16467	-395	72	-3	2638	-47	-5334	-177.293289	5.450674	3.752330
D:	2780.77	-1689	-779	-16530	-427	162	103	2638	-47	-5334	-177.307083	5.827861	3.689954
D:	2784.95	-1528	-797	-16381	-279	191	50	2638	-47	-5334	-177.219742	5.322958	4.195337
D:	2790.07	-1569	-830	-16551	-346	229	-17	2619	-42	-5401	-177.134354	5.590468	2.893257
D:	2794.91	-1589	-602	-16223	-306	144	142	2619	-42	-5401	-177.880112	5.455373	3.902073
D:	2799.47	-1569	-775	-16411	-378	201	92	2619	-42	-5401	-177.301483	5.678209	2.827100
D:	2804.00	-1510	-737	-16481	-366	161	95	2619	-42	-5401	-177.444778	5.229819	2.767173
D:	2808.40	-1598	-701	-16268	-361	134	51	2619	-85	-5239	-177.537857	5.605144	2.582319
D:	2812.02	-1342	-799	-16488	-328	84	70	2619	-85	-5239	-177.537857	4.647898	3.181511
D:	2815.71	-1342	-799	-16488	-407	140	-24	2619	-85	-5239	-177.230881	5.345104	2.964986
D:	2819.54	-1581	-791	-16880	-416	94	20	2619	-85	-5239	-177.322296	5.460188	2.969587
D:	2823.24	-1541	-757	-16104	-370	26	79	2619	-85	-5239	-177.313904	6.078236	2.532080
D:	2826.85	-1751	-705	-16429	-310	200	17	2619	-85	-5239	-177.548080	5.556586	3.038892
D:	2830.48	-1591	-731	-16338	-429	19	28	2612	-80	-5509	-177.443390	4.699090	3.227226
D:	2834.59	-1338	-745	-16261	-401	-135	-25	2612	-80	-5509	-177.382050	5.610192	2.985358
D:	2839.58	-1563	-618	-16418	-393	5	75	2612	-80	-5509	-177.849564	5.434526	2.334670
D:	2844.76	-1374	-747	-16444	-332	50	2	2612	-80	-5509	-177.404236	4.771572	2.647168
D:	2850.09	-1599	-661	-16159	-366	39	-13	2612	-80	-5509	-177.662796	5.135282	2.346153
D:	2855.11	-1450	-700	-16120	-369	55	-23	2605	-101	-5217	-177.518753	5.412171	1.829568
D:	2859.39	-1556	-628	-16412	-347	68	-33	2605	-101	-5217	-177.813904	5.623709	1.378041
D:	2863.15	-1606	-549	-16301	-371	173	-51	2605	-101	-5217	-178.076324	5.666056	1.895116
D:	2866.73	-1631	-642	-16427	-378	105	-44	2605	-101	-5217	-177.767151	5.231927	1.773835
D:	2870.47	-1477	-606	-16119	-289	213	-15	2605	-101	-5217	-177.852188	5.004579	2.129154
D:	2874.15	-1445	-622	-16490	-289	136	-45	2605	-84	-5237	-177.845078	5.765716	2.196079
D:	2877.69	-1637	-630	-16201	-387	136	-45	2605	-84	-5237	-177.778336	5.765605	2.238217
D:	2881.41	-1471	-621	-16511	-383	67	36	2605	-84	-5237	-177.851303	5.087732	2.130083
D:	2885.27	-1401	-656	-16624	-292	109	123	2605	-84	-5237	-177.745468	4.813674	2.312424
D:	2888.99	-1494	-640	-16295	-278	257	27	2605	-84	-5237	-177.756058	5.234634	1.644269
D:	2892.87	-1509	-665	-16354	-383	217	-27	2620	-118	-5264	-177.676712	5.267639	1.777702
D:	2896.57	-1603	-630	-16262	-337	160	-55	2620	-118	-5264	-177.786682	5.625624	1.574757
D:	2900.17	-1518	-650	-16281	-329	189	-38	2620	-118	-5264	-177.786682	5.322658	1.703141
D:	2903.79	-1518	-650	-16281	-350	176	14	2620	-118	-5264	-177.718994	4.974412	1.502400
D:	2907.31	-1446	-626	-16602	-309	161	43	2620	-118	-5264	-177.845856	5.529049	1.697350
D:	2911.23	-1578	-651	-16289	-261	139	56	2609	-95	-5428	-177.716599	4.695442	2.435478
D:	2914.96	-1339	-674	-16289	-242	110	66	2609	-95	-5428	-177.635834	5.460921	1.698162
D:	2918.78	-1574	-568	-16455	-197	121	70	2609	-95	-5428	-178.028290	5.521969	1.583719
D:	2922.39	-1590	-549	-16438	-197	178	23	2609	-95	-5428	-178.092392	5.521969	1.801458
D:	2926.02	-1514	-580	-16355	-216	166	-29	2609	-95	-5428	-177.974228	5.285711	1.843480
D:	2929.76	-1543	-584	-16242	-195	166	-29	2609	-95	-5428	-177.945999	5.423524	1.491502
D:	2933.55	-1264	-614	-16828	-188	127	34	2615	-116	-5326	-177.915649	4.292867	1.428515
D:	2937.26	-1641	-555	-16175	-255	148	53	2615	-116	-5326	-178.040070	5.789786	1.217459
D:	2940.89	-1579	-659	-16490	-336	111	17	2615	-116	-5326	-177.716721	5.465507	1.782027
D:	2944.52	-1788	-648	-16467	-358	194	126	2615	-116	-5326	-177.751740	6.192371	1.687479
D:	2948.37	-1493	-584	-16295	-264	135	-4	2615	-116	-5326	-177.952698	5.231820	1.125404
D:	2953.59	-1458	-645	-16597	-189	202	-83	2614	-126	-5193	-177.779724	5.016767	1.861532
D:	2958.71	-1356	-707	-16339	-246	137	14	2614	-126	-5193	-177.527557	5.201303	1.181785
D:	2963.87	-1693	-575	-16661	-208	84	22	2614	-126	-5193	-178.028656	5.798911	0.974990
D:	2969.06	-1513	-622	-16357	-209	159	34	2614	-126	-5193	-177.827530	5.281103	1.148922
D:	2973.14	-1462	-653	-16615	-310	140	-55	2624	-143	-5402	-177.754578	5.024952	1.285132
D:	2976.74	-1645	-443	-16410	-186	178	22	2624	-143	-5402	-178.458908	5.722518	0.051475
D:	2980.27	-1555	-620	-16554	-133	224	14	2624	-143	-5402	-177.860336	5.362753	1.089395
D:	2983.84	-1555	-620	-16554	-203	132	85	2624	-143	-5402	-177.860336	5.603504	-0.213806
D:	2987.62	-1587	-393	-16171	-251	201	31	2624	-143	-5402	-178.613098	5.194253	0.681093
D:	2991.50	-1483	-543	-16305	-159	122	-26	2624	-123	-5233	-178.097870	5.411767	1.141053
D:	2995.17	-1556	-580	-16415	-236	238	-25	2608	-123	-5233	-177.981628	5.551422	0.515816
D:	2998.79	-1581	-469	-16260	-173	137	-6	2608	-123	-5233	-178.353104	5.702306	0.599887
D:	3002.38	-1619	-482	-16207	-173	148	-5	2608	-123	-5233	-178.301773	5.702306	0.900609
D:	3005.96	-1573	-539	-16430	-185	148	-5	2608	-123	-5233	-178.126297	5.466040	1.394301
D:	3009.53	-1206	-621	-16616	-97	71	42	2608	-123	-5233	-177.864899	4.148521	1.339443
D:	3013.13	-1571	-483	-16164	-116	78	24	2608	-123	-5233	-178.293701	5.548918	0.410276
D:	3016.80	-1457	-529	-16343	-129	123	76	2606	-136	-5296	-178.151321	5.092023	0.661659
D:	3020.57	-1560	-592	-16414	-182	54	0	2606	-136	-5296	-177.939651	5.425784	1.017552
D:	3024.24	-1521	-433	-16330	-228	144	1	2606	-136	-5296	-177.939651	5.319558	0.082166
D:	3027.84	-1521	-433	-16330	-182	110	65	2606	-136	-5296	-178.486374	4.804981	0.905730
D:	3031.39	-1384	-572	-16455	-98	139	-32	2606	-136	-5296	-178.014359	5.159774	0.728545
D:	3035.10	-1473	-539	-16304	-158	136	27	2611	-118	-5319	-178.111771	4.787383	0.700530
D:	3038.81	-1395	-486	-16650	-134	157	-2	2611	-118	-5319	-178.333328	5.136358	0.801874
D:	3042.72	-1455	-490	-16180	-151	210	-5	2611	-118	-5319	-178.270630	5.504620	0.779357
D:	3046.26	-1577	-493	-16357	-151	131	-3	2611	-118	-5319	-178.278885	5.624559	0.898390
D:	3049.84	-1601	-510	-16249	-133	131	-3	2611	-118	-5319	-178.207520	5.624555	0.809371
D:	3053.49	-1529	-493	-16207	-131	167	-37	2611	-118	-5319	-178.262909	5.387125	0.246069
D:	3057.40	-1389	-537	-16733	-102	193	1	2609	-146	-5236	-178.167130	4.742931	0.416032
D:	3061.12	-1514	-579	-16365	-192	76	-20	2609	-146	-5236	-177.978943	5.282515	0.729682
D:	3064.92	-1417	-539	-16597	-158	47	-4	2609	-146	-5236	-178.145172	4.877485	0.452190
D:	3068.72	-1428	-579	-16538	-213	82	62	2609	-146	-5236	-178.000122	4.932194	0.700589
D:	3072.41	-1490	-531	-16450	-61	188	-38	2609	-146	-5236	-178.156403	5.173058	0.427720
D:	3076.17	-1289	-489	-16531	-67	119	10	2620	-131	-5249	-178.310898	4.456790	0.460235
D:	3079.85	-1289	-489	-16531	-104	112	-48	2620	-131	-5249	-178.310898	5.460682	0.748388
D:	3083.39	-1568	-536	-16394	-123	114	-65	2620	-131	-5249	-178.132645	5.154504	0.768591
D:	3087.00	-1487	-541	-16476	-70	25	15	2620	-131	-5249	-178.124573	5.428982	0.277057
D:	3090.60	-1555	-455	-16356	-67	58	38	2620	-131	-5249	-178.411774	5.229773	0.299914
D:	3094.23	-1499	-459	-16371	-67	30	-4	2620	-131	-5249	-178.399261	5.256516	0.418479
D:	3097.77	-1510	-523	-16405	-47	30	-4	2617	-146	-5288	-178.179245	5.256477	0.418479
D:	3101.38	-1530	-377	-16373	-20	171	-5	2617	-146	-5288	-178.686218	5.337339	-0.449139
D:	3105.18	-1512	-710	-16392	-59	44	-245	2617	-146	-5288	-177.525085	5.265304	1.537383
D:	3108.71	-1531	-542	-16564	-107	65	78	2617	-146	-5288	-178.131104	5.278155	0.500565
D:	3112.48	-1409	-525	-16402	-111	117	81	2617	-146	-5288	-178.171951	4.907536	0.447526
D:	3116.39	-1458	-488	-16265	-24	139	-33	2610	-147	-5339	-178.286713	5.120181	0.245505
D:	3120.01	-1541	-576	-16349	-88	175	6	2610	-147	-5339	-178.286713	5.381432	0.759311
D:	3123.59	-1541	-576	-16349	185	54	-23	2610	-147	-5339	-177.987473	5.195003	0.811650
D:	3127.14	-1518	-596	-16686	-54	-7	-106	2610	-147	-5339	-177.959595	5.271910	0.068672
D:	3130.72	-1501	-459	-16261	-12	118	-43	2610	-147	-5339	-178.388397	4.681643	0.865977
D:	3134.49	-1356	-598	-16548	-55	65	65	2610	-147	-5339	-177.935638	5.072873	1.550381
D:	3138.16	-1447	-765	-16283	-55	91	78	2622	-165	-5288	-177.315384	5.243809	0.509957
D:	3141.73	-1503	-596	-16367	-83	91	78	2622	-165	-5288	-177.919769	5.243519	0.509957
D:	3145.40	-1490	-534	-16396	2	109	-5	2622	-165	-5288	-178.139847	5.189955	0.132635
D:	3149.17	-1557	-584	-16085	-10	-10	33	2622	-165	-5288	-177.925903	5.525451	0.495493
D:	3152.72	-1502	-529	-16504	-3	50	-68	2622	-165	-5288	-178.169388	5.197562	0.624495
D:	3156.42	-1543	-471	-16110	-45	162	-107	2622	-138	-5359	-178.330597	5.468883	0.344298
D:	3160.14	-1343	-527	-16265	-94	85	11	2608	-138	-5359	-178.330597	4.717876	0.671272
D:	3163.72	-1343	-527	-16265	43	56	21	2608	-138	-5359	-178.149475	5.211661	0.486580
D:	3167.48	-1498	-503	-16416	-24	49	65	2608	-138	-5359	-178.250229	5.479561	0.226570
D:	3171.15	-1574	-460	-16402	29	-29	219	2608	-138	-5359	-178.398804	5.549398	0.925372
D:	3174.84	-1610	-582	-16561	-73	-7	-47	2608	-138	-5359	-177.992538	4.797772	0.504757
D:	3178.44	-1373	-503	-16351	183	47	-55	2608	-138	-5359	-178.243225	4.689608	0.142606
D:	3182.22	-1323	-549	-16119	21	-214	-48	2624	-178	-5450	-178.054565	4.689582	-0.543760
D:	3185.99	-1512	-439	-16126	65	-28	33	2624	-178	-5450	-178.445877	5.354671	-0.535437
D:	3189.62	-1381	-446	-16286	-27	-28	33	2624	-178	-5450	-178.436584	4.845237	-0.524543
D:	3193.19	-1591	-517	-16366	242	-21	-6	2624	-178	-5450	-178.195877	5.549902	-0.106454
D:	3196.87	-1396	-515	-16277	75	-1	-17	2624	-178	-5450	-178.193024	4.899693	0.592956
D:	3200.57	-1606	-578	-16307	77	-8	54	2610	-135	-5265	-177.975250	5.621313	0.949292
D:	3204.22	-1590	-429	-16408	63	39	33	2610	-135	-5265	-178.507553	5.533190	0.049019
D:	3207.94	-1524	-487	-16371	-13	62	-39	2610	-135	-5265	-178.507553	5.316237	0.401180
D:	3211.68	-1524	-487	-16371	101	23	62	2610	-135	-5265	-178.301346	5.072747	0.573456
D:	3215.63	-1442	-511	-16237	26	72	57	2610	-135	-5265	-178.202682	5.045151	0.565147
D:	3219.41	-1441	-512	-16315	0	122	49	2619	-158	-5284	-178.207779	5.340181	0.260511
D:	3223.00	-1585	-552	-16948	48	6	-16	2619	-158	-5284	-178.139786	5.513926	0.118210
D:	3226.60	-1558	-502	-16132	11	75	85	2619	-158	-5284	-178.222885	5.037679	0.370786
D:	3230.18	-1488	-568	-16871	11	37	33	2619	-158	-5284	-178.076981	5.037679	0.078882
D:	3233.86	-1580	-507	-16508	98	37	33	2619	-158	-5284	-178.246124	5.464793	-0.101659
D:	3237.53	-1426	-475	-16452	60	-10	5	2619	-158	-5284	-178.351486	4.951903	0.078368
D:	3241.21	-1452	-516	-16308	130	84	54	2624	-144	-5133	-178.192963	5.085592	0.343611
D:	3244.86	-1484	-455	-16077	201	52	52	2624	-144	-5133	-178.384140	5.271843	0.023592
D:	3248.61	-1443	-611	-16518	91	92	-16	2624	-144	-5133	-177.886826	4.989393	0.858068
D:	3252.40	-1565	-475	-16509	165	144	28	2624	-144	-5133	-178.357193	5.413205	0.068194
D:	3256.09	-1502	-552	-16261	64	107	-12	2624	-144	-5133	-178.357193	5.274471	0.561442
D:	3259.72	-1502	-552	-16261	108	12	-2	2612	-154	-5408	-178.061005	5.723812	-0.119590
D:	3263.26	-1688	-459	-16835	121	110	11	2612	-154	-5408	-178.443497	5.279704	-0.285933
D:	3266.85	-1512	-419	-16357	159	38	41	2612	-154	-5408	-178.537903	5.314009	-0.599717
D:	3270.53	-1536	-371	-16510	121	61	17	2612	-154	-5408	-178.717972	5.356915	0.428955
D:	3274.23	-1537	-537	-16383	121	115	12	2612	-154	-5408	-178.127884	5.280837	0.461881
D:	3277.81	-1506	-539	-16285	131	115	12	2612	-154	-5408	-178.109558	5.280837	1.168923
D:	3281.49	-1404	-590	-16656	118	72	4	2618	-132	-5496	-177.976517	4.815433	1.154212
D:	3285.40	-1504	-512	-16380	143	27	93	2618	-132	-5496	-178.214905	5.243756	0.732849
D:	3289.23	-1349	-510	-16610	129	-25	39	2618	-132	-5496	-178.246597	4.641110	0.689088
D:	3292.87	-1557	-600	-16511	136	35	-16	2618	-132	-5496	-177.924057	5.383731	1.241783
D:	3296.49	-1371	-523	-16325	127	-19	26	2618	-132	-5496	-178.170319	4.798219	0.117570
D:	3300.14	-1541	-573	-16416	151	42	-32	2609	-166	-5377	-178.170319	5.359658	0.400528
D:	3303.89	-1688	-559	-16059	119	5	33	2609	-166	-5377	-178.006165	5.997034	0.384002
D:	3307.53	-1688	-559	-16059	150	70	-25	2609	-166	-5377	-178.011642	4.567607	0.499525
D:	3311.07	-1338	-599	-16738	146	24	14	2609	-166	-5377	-177.955688	5.439515	0.471647
D:	3314.80	-1575	-589	-16530	119	81	16	2609	-166	-5377	-177.964554	5.067979	0.255015
D:	3318.61	-1463	-551	-16488	42	119	48	2609	-166	-5377	-178.091248	5.009643	1.498294
D:	3322.39	-1445	-601	-16474	42	212	15	2609	-106	-5089	-177.915924	5.613508	0.909672
D:	3326.01	-1625	-504	-16526	128	164	75	2612	-106	-5089	-178.258423	5.613408	0.991871
D:	3329.61	-1372	-515	-16549	43	164	75	2612	-106	-5089	-178.222794	4.737143	0.988729
D:	3333.13	-1405	-545	-16548	212	171	25	2612	-106	-5089	-178.118927	4.850557	1.162989
D:	3336.71	-1528	-559	-16474	65	174	103	2612	-106	-5089	-178.061829	5.296275	1.243346
D:	3340.28	-1407	-553	-16485	110	222	6	2612	-106	-5089	-178.083954	4.875804	1.220791
D:	3343.83	-1407	-553	-16485	60	249	-39	2597	-155	-5263	-178.083954	5.515521	0.138324
D:	3347.47	-1571	-502	-16262	83	188	-14	2597	-155	-5263	-178.237137	4.902219	0.956342
D:	3351.40	-1414	-644	-16474	129	199	-54	2597	-155	-5263	-177.766586	4.989533	0.429051
D:	3355.17	-1422	-550	-16279	100	136	44	2597	-155	-5263	-178.070206	5.569193	-0.438072
D:	3359.07	-1587	-406	-16271	125	92	86	2597	-155	-5263	-178.575912	4.294127	0.389707
D:	3362.74	-1245	-552	-16572	1	55	123	2597	-155	-5263	-178.097473	5.509940	0.938875
D:	3366.38	-1559	-537	-16153	1	93	88	2613	-131	-5483	-178.101181	5.084295	0.975445
D:	3370.04	-1454	-547	-16334	145	72	45	2613	-131	-5483	-178.087219	5.084193	1.262519
D:	3373.56	-1614	-608	-16668	122	72	45	2613	-131	-5483	-177.916183	5.527346	1.262519
D:	3377.25	-1672	-461	-16336	74	70	62	2613	-131	-5483	-178.388809	5.841773	0.430417
D:	3380.98	-1344	-519	-16792	63	21	1	2613	-131	-5483	-178.234940	4.574051	0.200174
D:	3384.95	-1646	-614	-16480	124	-20	42	2617	-153	-5293	-177.871567	5.699948	0.808561
D:	3388.59	-1520	-537	-16390	160	98	97	2617	-153	-5293	-178.128693	5.295756	0.377869
D:	3392.32	-1610	-539	-16610	146	53	86	2617	-153	-5293	-178.146652	5.533628	0.344831
D:	3396.03	-1589	-475	-16379	114	59	-47	2617	-153	-5293	-178.146652	5.539028	0.009179
D:	3399.62	-1589	-475	-16379	93	108	-20	2617	-153	-5293	-178.344131	4.856179	0.059756
D:	3403.40	-1420	-493	-16707	84	34	40	2598	-114	-5237	-178.315033	5.383184	1.389268
D:	3407.15	-1544	-590	-16375	38	106	121	2598	-114	-5237	-177.941742	5.039000	0.971410
D:	3410.87	-1486	-533	-16845	-64	238	-30	2598	-114	-5237	-178.192932	5.254025	1.305265
D:	3414.58	-1517	-579	-16487	-87	244	-52	2598	-114	-5237	-177.993927	5.171699	1.038377
D:	3418.38	-1483	-530	-16377	-87	201	8	2598	-114	-5237	-178.151657	5.278028	1.128299
D:	3422.10	-1537	-554	-16629	-14	191	-79	2598	-114	-5237	-178.097122	5.278025	1.044664
D:	3425.78	-1453	-580	-16283	29	191	-79	2599	-135	-5360	-177.965240	5.096171	1.085081
D:	3429.53	-1278	-590	-16474	-19	246	-19	2599	-135	-5360	-177.954132	4.433238	1.067019
D:	3433.19	-1432	-622	-16351	8	213	-47	2599	-135	-5360	-177.826736	5.001670	1.290398
D:	3436.76	-1501	-553	-16531	8	141	20	2599	-135	-5360	-178.089294	5.185447	0.825572
D:	3440.63	-1528	-600	-16522	52	133	8	2599	-135	-5360	-177.925430	5.280536	1.250467
D:	3444.29	-1462	-504	-16243	92	177	-81	2597	-123	-5232	-178.227997	5.140910	0.737378
D:	3447.91	-1462	-576	-16818	128	97	-2	2597	-123	-5232	-178.227997	5.269524	1.049148
D:	3451.60	-1552	-576	-16818	162	113	5	2597	-123	-5232	-178.043701	5.250659	0.601590
D:	3455.14	-1497	-483	-16283	124	134	-56	2597	-123	-5232	-178.306198	4.947994	1.292410
D:	3458.70	-1417	-599	-16357	123	109	-51	2597	-123	-5232	-177.907990	5.018879	0.897110
D:	3462.26	-1430	-531	-16275	123	112	-55	2597	-123	-5232	-178.136551	5.508241	0.286717
D:	3465.97	-1557	-484	-16139	130	36	54	2595	-145	-5352	-178.287491	5.508222	1.870889
D:	3469.69	-1579	-742	-16110	206	36	54	2595	-145	-5352	-177.368149	5.592164	1.906209
D:	3473.39	-1422	-475	-16433	70	84	41	2595	-145	-5352	-178.349564	4.943758	0.182360
D:	3477.08	-1381	-526	-16394	125	89	49	2595	-145	-5352	-178.167557	4.812799	0.504135
D:	3480.62	-1631	-484	-16177	103	79	25	2595	-145	-5352	-178.291550	5.754841	0.199031
D:	3484.26	-1531	-519	-16209	91	83	-18	2595	-145	-5207	-178.171310	5.393202	0.404833
D:	3487.83	-1531	-519	-16209	72	9	58	2595	-131	-5207	-178.171310	5.209322	1.002567
D:	3491.53	-1493	-580	-16366	81	119	26	2595	-131	-5207	-177.975586	5.406914	0.089404
D:	3495.13	-1532	-422	-16181	61	228	12	2595	-131	-5207	-178.511322	5.043668	1.007754
D:	3499.00	-1470	-590	-16646	82	51	105	2595	-131	-5207	-177.975311	5.571751	2.087389
D:	3502.67	-1588	-761	-16261	79	202	27	2595	-131	-5207	-177.325790	5.405170	0.739824
D:	3506.26	-1539	-533	-16257	79	256	-20	2595	-131	-5207	-178.127441	5.405170	1.303866
D:	3509.85	-1423	-614	-16394	-40	256	-20	2589	-129	-5291	-177.860367	4.957530	1.302321
D:	3513.40	-1422	-575	-16249	56	192	-45	2589	-129	-5291	-177.978592	4.998423	1.096620
D:	3517.02	-1267	-622	-16581	95	244	-63	2589	-129	-5291	-177.856934	4.366707	1.332773
D:	3520.56	-1312	-641	-16665	124	246	-9	2589	-129	-5291	-177.802505	4.498311	1.423644
D:	3524.16	-1399	-520	-16341	79	187	-34	2589	-129	-5291	-177.802505	4.891005	0.743868
D:	3527.70	-1399	-520	-16341	35	216	-14	2598	-126	-5156	-178.182617	5.196802	1.017823
D:	3531.32	-1486	-571	-16329	139	215	-42	2598	-126	-5156	-178.002533	5.238882	0.640479
D:	3534.96	-1488	-504	-16221	80	127	49	2598	-126	-5156	-178.225616	4.700631	0.952856
D:	3538.59	-1356	-563	-16482	188	89	83	2598	-126	-5156	-178.048874	4.838619	0.338312
D:	3542.21	-1387	-457	-16379	188	76	12	2598	-126	-5156	-178.407028	5.019381	0.620293
D:	3545.87	-1431	-502	-16287	133	76	12	2598	-126	-5156	-178.239838	5.018975	0.514287
D:	3549.49	-1469	-548	-16634	186	3	-19	2592	-149	-5355	-178.118347	5.044301	0.514287
D:	3553.08	-1599	-561	-16430	164	-7	-3	2592	-149	-5355	-178.049637	5.555580	0.625509
D:	3556.61	-1340	-523	-16458	188	22	33	2592	-149	-5355	-178.185120	4.652517	0.401732
D:	3560.13	-1387	-581	-16444	194	13	-8	2592	-149	-5355	-178.185120	4.818458	0.759020
D:	3563.72	-1387	-581	-16444	136	-82	7	2592	-149	-5355	-177.981720	5.388628	0.176984
D:	3567.28	-1546	-485	-16383	110	-6	63	2596	-104	-5231	-178.309586	4.656281	1.148757
D:	3570.82	-1348	-520	-16543	164	-47	-9	2596	-104	-5231	-178.204865	5.322238	1.526476
D:	3574.58	-1540	-587	-16521	178	-37	26	2596	-104	-5231	-177.970352	4.843153	1.582335
D:	3578.40	-1394	-590	-16442	178	13	19	2596	-104	-5231	-177.950150	4.843153	1.515845
D:	3582.10	-1527	-586	-16555	230	31	-4	2596	-104	-5231	-177.977997	5.266811	1.460921
D:	3585.74	-1523	-570	-16353	181	31	-4	2596	-104	-5231	-178.008957	5.317712	0.980216
D:	3589.33	-1411	-612	-16619	-23	63	-68	2595	-134	-5336	-177.896271	4.849806	1.166606
D:	3593.21	-1492	-543	-16418	126	169	-71	2595	-134	-5336	-178.110977	5.189872	0.793083
D:	3596.81	-1463	-582	-16556	73	130	14	2595	-134	-5336	-177.991943	5.046973	1.004340
D:	3600.64	-1353	-595	-16668	147	37	10	2595	-134	-5336	-177.960831	4.637919	1.071444
D:	3604.38	-1537	-639	-16396	207	79	90	2595	-134	-5336	-177.773392	5.351511	1.373921
D:	3607.92	-1537	-581	-16390	215	168	-39	2592	-131	-5401	-177.773392	5.374935	1.121430
D:	3611.50	-1543	-581	-16390	195	201	2	2592	-131	-5401	-177.975052	5.306097	0.567523
D:	3615.17	-1513	-487	-16284	154	118	-37	2592	-131	-5401	-178.292236	4.894691	0.811274
D:	3619.10	-1382	-520	-16130	112	86	-18	2592	-131	-5401	-178.158798	5.157605	1.177240
D:	3622.61	-1483	-590	-16420	58	56	12	2592	-131	-5401	-177.947388	4.796173	0.672347
D:	3626.15	-1355	-498	-16142	58	16	-11	2592	-131	-5401	-178.238159	4.439604	1.709921
D:	3629.72	-1307	-676	-16827	161	16	-11	2583	-126	-5360	-177.704712	4.437971	1.709921
D:	3633.27	-1445	-580	-16435	238	44	-5	2583	-126	-5360	-177.984085	5.021684	1.188546
D:	3636.83	-1474	-573	-16407	229	45	51	2583	-126	-5360	-178.005051	5.130694	1.147941
D:	3640.39	-1415	-518	-16181	251	75	-12	2583	-126	-5360	-178.171677	4.995303	0.858743
D:	3643.90	-1415	-559	-16363	233	-49	-6	2583	-126	-5360	-178.171677	4.939669	1.077414
D:	3647.48	-1415	-559	-16363	323	-52	-15	2583	-126	-5236	-178.048660	4.930723	1.284773
D:	3651.09	-1413	-606	-16368	266	-92	-27	2594	-119	-5236	-177.884933	5.370352	1.467862
D:	3654.60	-1534	-616	-16307	265	20	82	2594	-119	-5236	-177.841919	4.866003	1.393043
D:	3658.40	-1405	-607	-16493	9	-16	36	2594	-119	-5236	-177.897522	5.239416	0.881710
D:	3662.16	-1518	-525	-16546	168	-68	40	2594	-119	-5236	-178.187881	4.795280	2.013191
D:	3665.71	-1371	-703	-16335	260	-68	40	2594	-119	-5236	-177.540939	4.793328	1.511581
D:	3669.39	-1351	-627	-16537	220	93	52	2594	-119	-5236	-177.833923	4.667239	1.698500
D:	3673.11	-1577	-547	-16168	437	43	18	2586	-111	-5348	-178.067535	5.567912	1.294681
D:	3676.78	-1281	-674	-16500	132	98	64	2586	-111	-5348	-177.666107	4.435778	2.055327
D:	3680.46	-1585	-627	-16400	255	193	-65	2586	-111	-5348	-177.815796	5.516440	1.732325
D:	3684.10	-1421	-659	-16223	170	28	8	2586	-111	-5348	-177.815796	5.001902	1.998390
D:	3687.66	-1421	-659	-16223	147	102	37	2586	-111	-5348	-177.679077	4.928162	1.462438
D:	3691.57	-1434	-586	-16621	156	103	-28	2581	-105	-5401	-177.986038	5.470494	1.918617
D:	3695.34	-1545	-622	-16121	98	167	10	2581	-105	-5401	-177.795685	5.464919	1.508077
D:	3699.43	-1563	-563	-16328	209	116	24	2581	-105	-5401	-178.030441	5.308045	2.036424
D:	3703.07	-1519	-648	-16337	80	42	-69	2581	-105	-5401	-177.733826	5.009149	1.770700
D:	3706.74	-1444	-607	-16464	219	55	-74	2581	-105	-5401	-177.893814	4.872852	1.870735
D:	3710.52	-1391	-616	-16305	181	51	7	2581	-105	-5401	-177.841660	5.572226	0.970216
D:	3714.13	-1573	-528	-16115	181	20	17	2579	-122	-5318	-178.128647	5.572226	1.714174
D:	3717.80	-1512	-666	-16600	243	20	17	2579	-122	-5318	-177.707733	5.200379	1.659997
D:	3721.54	-1613	-661	-16634	350	54	34	2579	-122	-5318	-177.729630	5.534481	1.659997
D:	3725.28	-1559	-557	-16369	243	-17	29	2579	-122	-5318	-178.056366	5.437530	1.099122
D:	3728.84	-1493	-618	-16276	265	40	89	2579	-122	-5318	-177.830765	5.237484	2.141340
D:	3732.53	-1465	-463	-16246	308	82	-36	2600	-92	-5466	-178.372803	5.150841	1.185711
D:	3736.19	-1274	-713	-16758	359	181	17	2600	-92	-5466	-177.568954	4.343670	2.674485
D:	3739.78	-1274	-713	-16758	237	0	-48	2600	-92	-5466	-177.568954	5.530221	1.246705
D:	3743.31	-1567	-473	-16178	332	-68	-8	2600	-92	-5466	-178.330566	4.663266	2.511469
D:	3746.91	-1351	-682	-16549	272	-75	-5	2600	-92	-5466	-177.645355	5.179508	1.991220
D:	3750.53	-1488	-598	-16405	261	-64	-49	2600	-92	-5466	-177.917603	4.938844	1.827525
D:	3754.18	-1408	-550	-16285	261	-125	9	2591	-81	-5267	-178.070923	4.938844	2.687196
D:	3757.76	-1518	-697	-16309	209	-125	9	2591	-81	-5267	-177.558060	5.312959	2.702645
D:	3761.38	-1446	-605	-16153	295	29	13	2591	-81	-5267	-177.860275	5.112010	2.181762
D:	3764.94	-1247	-717	-16744	149	34	53	2591	-81	-5267	-177.553268	4.255448	2.779448
D:	3768.53	-1545	-665	-16472	220	24	5	2591	-81	-5267	-177.693375	5.354233	2.452478
D:	3772.20	-1533	-699	-16100	219	145	-17	2596	-112	-5301	-177.519226	5.434228	2.190306
D:	3775.76	-1533	-699	-16100	201	62	44	2596	-112	-5301	-177.519226	4.680002	2.143970
D:	3779.39	-1333	-691	-16269	256	130	51	2596	-112	-5301	-177.573151	5.555222	2.494716
D:	3783.28	-1596	-764	-16392	319	146	74	2596	-112	-5301	-177.336716	5.270720	2.024396
D:	3786.91	-1537	-693	-16647	161	135	104	2596	-112	-5301	-177.621429	5.336549	1.220281
D:	3790.48	-1512	-542	-16178	281	183	81	2596	-112	-5301	-178.086426	5.035820	2.274833
D:	3794.03	-1433	-666	-16249	281	178	-8	2598	-99	-5384	-177.658157	5.035820	1.687409
D:	3797.56	-1531	-575	-16286	166	178	-8	2598	-99	-5384	-177.983185	5.367262	1.687409
D:	3801.14	-1576	-624	-16347	185	160	73	2598	-99	-5384	-177.819199	5.502996	1.965117
D:	3804.65	-1511	-676	-16339	140	447	-7	2598	-99	-5384	-177.636063	5.279243	2.297295
D:	3808.16	-1417	-687	-16348	131	157	47	2598	-99	-5384	-177.636063	4.949659	2.384947
D:	3811.70	-1417	-687	-16348	171	229	-4	2598	-99	-5384	-177.598877	4.543274	3.173506
D:	3815.28	-1299	-808	-16328	182	167	-36	2598	-83	-5403	-177.172226	5.121992	2.938359
D:	3818.84	-1462	-726	-16295	151	144	78	2598	-83	-5403	-177.454193	4.787467	2.094540
D:	3822.38	-1366	-586	-16300	151	168	-23	2598	-83	-5403	-177.946289	5.373764	2.490426
D:	3826.04	-1545	-661	-16412	75	78	-71	2598	-83	-5403	-177.698883	5.373713	2.042409
D:	3829.62	-1530	-588	-16448	18	78	-71	2598	-83	-5403	-177.957840	5.311169	2.088913
D:	3833.18	-1316	-691	-16533	2	221	-6	2598	-83	-5403	-177.611938	4.547237	2.321289
D:	3836.85	-1385	-533	-16269	102	55	0	2589	-102	-5358	-178.128815	4.863474	1.387764
D:	3840.39	-1429	-677	-16398	106	5	14	2589	-102	-5358	-177.641098	4.976375	2.240820
D:	3843.94	-1429	-688	-16633	138	20	17	2589	-102	-5358	-177.641098	5.234233	2.231841
D:	3847.48	-1525	-688	-16633	88	30	22	2589	-102	-5358	-177.636627	5.317861	2.299565
D:	3850.99	-1538	-695	-16509	103	6	-29	2589	-102	-5358	-177.594604	4.944214	2.250455
D:	3854.79	-1436	-686	-16586	181	120	101	2589	-102	-5358	-177.636826	5.424446	1.612860
D:	3858.38	-1543	-590	-16239	181	111	116	2590	-106	-5306	-177.924484	5.424446	2.053760
D:	3861.98	-1391	-663	-16384	85	66	12	2590	-106	-5306	-177.687958	4.848963	1.908935
D:	3865.99	-1490	-645	-16455	170	68	4	2590	-106	-5306	-177.760529	5.170226	1.652655
D:	3869.71	-1404	-594	-16275	46	68	4	2590	-106	-5306	-177.915009	4.927425	1.652655
D:	3873.23	-1413	-648	-16561	101	118	13	2590	-106	-5306	-177.764511	4.873152	2.302396
D:	3876.85	-1515	-728	-16388	85	84	31	2591	-86	-5317	-177.461670	5.276717	2.799244
D:	3880.38	-1292	-688	-16472	127	118	56	2591	-86	-5317	-177.613510	4.481119	2.596353
D:	3883.91	-1292	-653	-16299	150	170	17	2591	-86	-5317	-177.613510	5.428201	2.357977
D:	3887.63	-1550	-653	-16299	125	220	-31	2591	-86	-5317	-177.710983	5.219476	2.385734
D:	3891.30	-1510	-664	-16517	122	162	41	2591	-86	-5317	-177.703140	5.126193	2.334902
D:	3894.96	-1484	-655	-16530	58	252	-90	2591	-86	-5317	-177.736084	4.989077	2.572886
D:	3898.72	-1417	-662	-16219	59	277	-9	2596	-80	-5319	-177.667953	4.317770	3.264591
D:	3902.22	-1259	-785	-16657	59	247	11	2596	-80	-5319	-177.307022	4.317770	2.989054
D:	3905.77	-1310	-736	-16502	46	247	11	2596	-80	-5319	-177.451492	4.534513	2.598555
D:	3909.48	-1461	-669	-16244	102	203	-105	2596	-80	-5319	-177.646866	5.135227	2.597522
D:	3913.23	-1478	-661	-16389	16	249	-50	2596	-80	-5319	-177.695648	5.149122	2.378905
D:	3916.94	-1513	-629	-16295	12	249	-36	2584	-89	-5355	-177.794662	5.300967	2.195856
D:	3920.51	-1307	-733	-16427	66	170	-25	2584	-89	-5355	-177.450287	4.544737	2.858607
D:	3924.23	-1465	-662	-16553	48	156	16	2584	-89	-5355	-177.715042	5.053834	2.351479
D:	3927.91	-1445	-777	-16413	-41	239	-117	2584	-89	-5355	-177.715042	5.025895	3.091087
D:	3931.63	-1445	-777	-16413	-39	189	-56	2584	-89	-5355	-177.294846	4.520690	2.523824
D:	3935.20	-1310	-684	-16555	83	95	-10	2594	-98	-5390	-177.639313	5.073992	1.327354
D:	3938.88	-1434	-506	-16143	17	68	-101	2594	-98	-5390	-178.209915	4.019935	2.339535
D:	3942.47	-1155	-668	-16422	-52	174	-60	2594	-98	-5390	-177.675888	4.863112	2.910857
D:	3946.24	-1420	-782	-16672	-52	164	-15	2594	-98	-5390	-177.319748	4.863112	2.479239
D:	3949.89	-1453	-699	-16335	13	164	-15	2594	-98	-5390	-177.554947	5.078614	2.306399
D:	3953.83	-1518	-691	-16802	-65	245	-78	2594	-98	-5390	-177.650223	5.158267	3.021073
D:	3957.51	-1509	-710	-16057	-65	89	-76	2597	-76	-5412	-177.473404	5.363705	3.021073
D:	3961.14	-1487	-583	-16772	85	100	20	2597	-76	-5412	-178.014435	5.063684	2.094198
D:	3964.97	-1454	-602	-16221	-66	142	38	2597	-76	-5412	-177.879837	5.118773	2.327773
D:	3968.70	-1333	-587	-16394	-1	190	-60	2597	-76	-5412	-177.954605	4.645680	2.227108
D:	3972.22	-1331	-864	-16438	-145	219	-139	2597	-76	-5412	-176.996460	4.622976	3.937573
D:	3975.77	-1331	-864	-16438	-24	208	-21	2597	-76	-5412	-176.996460	5.381481	2.921534
D:	3979.31	-1520	-697	-16121	58	127	63	2598	-95	-5415	-177.529572	5.136584	1.579338
D:	3982.96	-1482	-547	-16478	50	113	-22	2598	-95	-5415	-178.103989	5.328709	2.388937
D:	3986.51	-1530	-678	-16390	-30	227	38	2598	-95	-5415	-177.636459	5.005208	3.225793
D:	3990.08	-1419	-800	-16183	-30	222	62	2598	-95	-5415	-177.175140	5.005208	2.662357
D:	3993.61	-1442	-715	-16292	-82	222	62	2598	-95	-5415	-177.492340	5.053361	2.662357
D:	3997.17	-1463	-568	-16321	-21	193	19	2598	-95	-5415	-178.012054	5.119321	2.001952
D:	4000.85	-1203	-673	-16681	-46	83	-46	2587	-77	-5275	-177.694870	4.121695	2.625725
D:	4004.44	-1414	-519	-16205	-40	173	0	2587	-77	-5275	-178.170853	4.984433	1.734079
D:	4007.99	-1491	-711	-16402	45	113	32	2587	-77	-5275	-178.170853	5.189421	2.841017
D:	4011.60	-1491	-711	-16402	-35	101	-35	2587	-77	-5275	-177.523102	5.117951	2.355560
D:	4015.15	-1455	-623	-16234	186	134	17	2587	-77	-5275	-177.807526	4.889750	2.770195
D:	4018.79	-1414	-700	-16514	-122	245	-49	2587	-77	-5275	-177.578033	4.507470	2.875866
D:	4022.60	-1288	-805	-16319	-115	262	-50	2591	-109	-5265	-177.181168	4.868827	1.661215
D:	4026.13	-1379	-605	-16178	-115	-13	-9	2591	-109	-5265	-177.863602	4.868827	1.341325
D:	4029.72	-1459	-571	-16682	34	-13	-9	2591	-109	-5265	-178.044861	4.995581	1.341325
D:	4033.27	-1551	-598	-16249	17	-64	-49	2591	-109	-5265	-177.897583	5.448973	1.575783
D:	4036.83	-1422	-726	-16141	-65	87	11	2591	-109	-5265	-177.429886	5.029770	2.708731
D:	4040.44	-1477	-783	-16746	-57	33	-44	2596	-96	-5351	-177.328156	5.035130	2.886000
D:	4044.02	-1578	-532	-16317	-172	64	-138	2596	-96	-5351	-177.328156	5.521084	1.449735
D:	4047.61	-1578	-532	-16317	-103	185	-98	2596	-96	-5351	-178.137848	5.122245	2.384733
D:	4051.55	-1468	-684	-16363	-88	156	-118	2596	-96	-5351	-177.611588	5.070653	1.253349
D:	4055.20	-1475	-506	-16616	-6	112	-83	2596	-96	-5351	-178.260986	5.096474	2.135308
D:	4058.77	-1454	-640	-16291	-7	72	5	2596	-96	-5351	-177.755508	4.377011	2.701478
D:	4062.47	-1276	-731	-16655	-67	222	14	2594	-96	-5415	-177.492096	4.954638	1.585932
D:	4066.12	-1423	-547	-16406	-67	102	-77	2594	-96	-5415	-178.095627	4.954638	2.101737
D:	4069.70	-1558	-635	-16403	-33	102	-77	2594	-96	-5415	-177.788284	5.421949	2.101737
D:	4073.38	-1518	-722	-16444	-65	146	-14	2594	-96	-5415	-177.491180	5.269322	2.632480
D:	4076.99	-1362	-725	-16355	-46	242	-28	2594	-96	-5415	-177.467041	4.755944	2.585242
D:	4080.56	-1467	-589	-16537	-53	247	-62	2591	-99	-5315	-177.965408	5.066401	1.694762
D:	4084.43	-1491	-688	-16460	-14	102	21	2591	-99	-5315	-177.611755	5.171572	2.303226
D:	4088.19	-1375	-624	-16791	-21	148	65	2591	-99	-5315	-177.876938	4.678378	1.869810
D:	4091.77	-1375	-624	-16791	-90	79	-3	2591	-99	-5315	-177.876938	4.953609	2.422803
D:	4095.41	-1405	-694	-16196	-23	117	40	2591	-99	-5315	-177.551605	4.158352	2.583244
D:	4099.22	-1203	-725	-16531	-7	162	115	2580	-123	-5292	-177.494019	4.990820	1.416782
D:	4102.92	-1434	-614	-16410	44	39	-17	2580	-123	-5292	-177.862442	5.027982	1.634573
D:	4106.51	-1418	-638	-16105	90	-19	8	2580	-123	-5292	-177.736649	4.868411	1.100264
D:	4110.13	-1425	-572	-16721	90	-72	40	2580	-123	-5292	-178.046005	4.907871	1.813037
D:	4113.91	-1407	-677	-16376	107	36	9	2580	-123	-5292	-177.637924	4.906677	1.438051
D:	4117.81	-1357	-612	-16307	48	36	9	2580	-123	-5292	-177.855957	4.753762	2.072094
D:	4121.42	-1377	-584	-16258	59	64	-96	2576	-91	-5335	-177.948029	4.838251	1.909461
D:	4125.21	-1561	-623	-16334	66	60	-42	2576	-91	-5335	-177.820969	5.455255	2.095895
D:	4129.02	-1237	-691	-16604	-17	112	2	2576	-91	-5335	-177.622162	4.257126	2.528285
D:	4132.76	-1441	-569	-16088	-15	120	-169	2576	-91	-5335	-177.979645	5.115286	1.838601
D:	4136.30	-1402	-729	-16509	-19	111	57	2576	-91	-5335	-177.476822	4.849544	2.740437
D:	4140.07	-1375	-618	-16343	13	55	19	2576	-91	-5335	-177.839676	4.805913	2.102858
D:	4143.82	-1375	-618	-16343	68	114	5	2572	-102	-5378	-177.839676	5.457635	2.091852
D:	4147.40	-1555	-648	-16263	44	108	4	2572	-102	-5378	-177.723495	4.953093	2.406747
D:	4151.18	-1428	-702	-16463	-55	91	86	2572	-102	-5378	-177.563553	5.199341	1.912148
D:	4154.88	-1499	-624	-16462	37	196	-20	2572	-102	-5378	-177.834473	4.918835	2.433879
D:	4158.49	-1400	-697	-16253	55	136	-89	2572	-102	-5378	-177.549652	4.990633	2.129167
D:	4162.04	-1427	-652	-16329	55	135	-104	2572	-102	-5378	-177.718689	4.990611	2.716893
D:	4165.93	-1403	-676	-16204	49	135	-104	2578	-83	-5448	-177.616364	4.944398	3.081873
D:	4169.79	-1198	-747	-16785	36	251	-29	2578	-83	-5448	-177.457016	4.078560	3.081873
D:	4173.38	-1482	-646	-16194	-30	220	-69	2578	-83	-5448	-177.720856	5.224902	2.508929
D:	4176.98	-1291	-690	-16626	-31	216	-39	2578	-83	-5448	-177.628754	4.436405	2.736306
D:	4180.59	-1325	-721	-16255	-7	148	-37	2578	-83	-5448	-177.465515	4.655650	2.442201
D:	4184.31	-1350	-614	-16121	-77	178	-57	2581	-106	-5278	-177.824081	4.783566	1.805638
D:	4188.21	-1298	-685	-16582	-3	79	-75	2581	-106	-5278	-177.639694	4.472185	2.147892
D:	4191.87	-1298	-685	-16582	102	65	70	2581	-106	-5278	-177.639694	4.736104	1.837410
D:	4195.50	-1348	-624	-16259	113	50	-6	2581	-106	-5278	-177.807373	4.958167	2.493278
D:	4199.27	-1408	-731	-16214	54	25	31	2581	-106	-5278	-177.423828	4.989964	2.130565
D:	4203.07	-1429	-678	-16353	162	48	43	2576	-101	-5464	-177.631088	4.819485	1.943748
D:	4206.86	-1362	-602	-16143	199	33	55	2576	-101	-5464	-177.869583	4.347577	2.680520
D:	4210.75	-1233	-714	-16203	170	43	76	2576	-101	-5464	-177.482071	5.295078	1.751576
D:	4214.38	-1513	-582	-16315	170	12	72	2576	-101	-5464	-177.962219	4.181634	2.204048
D:	4218.18	-1181	-636	-16141	92	31	-31	2576	-101	-5464	-177.748795	4.181634	2.085870
D:	4221.80	-1453	-642	-16552	127	31	-31	2576	-101	-5464	-177.784027	5.013188	2.094121
D:	4225.38	-1581	-628	-16242	107	61	70	2584	-96	-5394	-177.790985	5.555707	2.081991
D:	4229.02	-1575	-621	-16271	53	68	35	2584	-96	-5394	-177.819550	5.525056	2.034079
D:	4232.60	-1397	-660	-16411	203	172	13	2584	-96	-5394	-177.702225	4.861853	2.282389
D:	4236.21	-1262	-749	-16335	119	240	-58	2584	-96	-5394	-177.379913	4.413260	2.893148
D:	4239.92	-1262	-651	-16404	120	192	-10	2584	-96	-5394	-177.379913	4.936779	2.223435
D:	4243.54	-1418	-651	-16404	102	183	-20	2558	-95	-5338	-177.732620	5.217069	2.174116
D:	4247.40	-1478	-637	-16175	89	131	-63	2558	-95	-5338	-177.750000	5.324152	2.449812
D:	4251.40	-1514	-685	-16232	73	108	72	2558	-95	-5338	-177.588760	5.093623	1.907043
D:	4255.16	-1455	-598	-16313	125	146	-22	2558	-95	-5338	-177.905853	4.039935	2.623384
D:	4258.97	-1190	-723	-16834	40	188	-69	2558	-95	-5338	-177.545959	4.966442	2.743193
D:	4262.73	-1414	-729	-16256	106	35	46	2558	-95	-5338	-177.437531	4.561446	2.708015
D:	4266.28	-1318	-721	-16505	106	46	38	2575	-96	-5449	-177.503937	4.561446	2.354538
D:	4269.83	-1392	-667	-16488	118	46	38	2575	-96	-5449	-177.688675	4.821971	2.355263
D:	4273.44	-1363	-655	-16179	124	169	-250	2575	-96	-5449	-177.686905	4.811732	2.358434
D:	4277.02	-1350	-577	-16305	103	147	-101	2575	-96	-5449	-177.978516	4.730297	1.838014
D:	4280.58	-1436	-628	-16307	157	133	-57	2575	-96	-5449	-177.799805	5.028944	2.247176
D:	4284.56	-1327	-673	-16317	103	75	-56	2575	-85	-5296	-177.643387	4.645622	2.551975
D:	4288.26	-1429	-761	-16204	152	-242	-20	2571	-85	-5296	-177.316391	5.034396	3.093982
D:	4292.07	-1296	-622	-16464	210	44	-30	2571	-85	-5296	-177.316391	4.497819	2.211222
D:	4295.71	-1296	-622	-16464	230	-6	-49	2571	-85	-5296	-177.841675	4.576793	2.064428
D:	4299.29	-1332	-605	-16629	189	4	17	2571	-85	-5296	-177.921631	5.019360	2.359515
D:	4302.91	-1445	-651	-16440	137	57	56	2571	-85	-5296	-177.737595	4.318198	2.568238
D:	4306.47	-1243	-677	-16448	248	130	20	2571	-85	-5296	-177.648270	5.232181	2.755605
D:	4310.02	-1501	-694	-16377	248	55	7	2568	-82	-5402	-177.578690	5.232181	3.162781
D:	4313.58	-1462	-765	-16546	183	55	7	2568	-82	-5402	-177.358063	5.044313	3.168912
D:	4317.28	-1467	-683	-16826	215	146	45	2568	-82	-5402	-177.680771	4.978886	2.594564
D:	4321.18	-1445	-677	-16203	241	96	73	2568	-82	-5402	-177.612671	5.091945	2.706736
D:	4324.80	-1220	-806	-16388	245	171	130	2568	-82	-5402	-177.189560	4.252519	3.408344
D:	4328.38	-1320	-719	-16125	266	222	78	2567	-94	-5510	-177.452148	4.675338	2.884585
D:	4332.31	-1238	-736	-16536	73	218	-53	2567	-94	-5510	-177.456741	4.277480	2.911711
D:	4335.95	-1238	-644	-16253	115	170	103	2567	-94	-5510	-177.456741	4.989419	2.342872
D:	4339.50	-1420	-644	-16253	122	170	45	2567	-94	-5510	-177.736176	4.966831	2.847964
D:	4342.98	-1410	-721	-16209	4	190	97	2567	-94	-5510	-177.458313	4.678564	2.548346
D:	4346.56	-1358	-686	-16580	67	185	75	2567	-94	-5510	-177.635971	4.278167	2.851531
D:	4350.30	-1217	-743	-16252	67	73	-12	2557	-101	-5432	-177.387634	4.305119	2.250571
D:	4354.07	-1224	-650	-16247	66	103	1	2557	-101	-5432	-177.714203	4.305049	2.894022
D:	4357.81	-1341	-752	-16168	65	103	1	2557	-101	-5432	-177.342224	4.736395	2.420841
D:	4361.55	-1362	-689	-16430	27	66	-36	2557	-101	-5432	-177.603912	4.734818	2.420841
D:	4365.19	-1221	-656	-16439	-240	87	38	2557	-101	-5432	-177.720062	4.244580	2.991228
D:	4368.76	-1367	-642	-16079	-59	172	-41	2570	-57	-5301	-177.718750	4.855764	2.939758
D:	4372.38	-1279	-751	-16414	12	22	8	2570	-57	-5301	-177.385574	4.451051	3.566994
D:	4375.91	-1279	-577	-16159	63	75	3	2570	-57	-5301	-177.385574	4.913519	2.511230
D:	4379.48	-1390	-577	-16159	68	-28	45	2570	-57	-5301	-177.960220	4.878559	2.894703
D:	4383.08	-1397	-646	-16355	54	88	-66	2570	-57	-5301	-177.743317	4.547296	3.009089
D:	4386.59	-1304	-661	-16383	163	20	-53	2570	-57	-5301	-177.694794	5.041799	3.185004
D:	4390.15	-1433	-770	-16225	163	2	-20	2555	-89	-5422	-177.288132	5.041799	2.799788
D:	4393.69	-1293	-711	-16442	190	2	-20	2555	-89	-5422	-177.529144	4.492442	2.716046
D:	4397.29	-1583	-610	-16401	203	111	-70	2555	-89	-5422	-177.875229	5.509403	2.104571
D:	4400.94	-1465	-665	-16243	226	98	-3	2555	-89	-5422	-177.660812	5.149577	2.509913
D:	4404.50	-1358	-664	-16380	195	55	39	2555	-89	-5422	-177.683899	4.735592	2.499551
D:	4407.98	-1468	-717	-16366	151	124	18	2564	-97	-5200	-177.683899	5.120874	2.479751
D:	4411.61	-1468	-717	-16366	128	115	86	2564	-97	-5200	-177.496689	4.369096	2.443961
D:	4415.42	-1276	-716	-16686	110	122	8	2564	-97	-5200	-177.548172	4.702385	2.368921
D:	4419.40	-1338	-689	-16252	86	86	29	2564	-97	-5200	-177.577637	4.792000	1.920663
D:	4423.21	-1395	-631	-16629	140	74	86	2564	-97	-5200	-177.832153	4.959651	2.292292
D:	4426.83	-1413	-680	-16269	74	172	5	2564	-97	-5200	-177.611816	4.824732	2.693959
D:	4430.56	-1375	-735	-16274	29	171	-41	2582	-100	-5368	-177.419281	4.155980	2.463706
D:	4434.18	-1209	-705	-16624	29	78	-32	2582	-100	-5368	-177.576874	4.155980	2.105270
D:	4437.90	-1427	-644	-16321	27	78	-32	2582	-100	-5368	-177.745621	4.993137	3.005641
D:	4441.47	-1197	-775	-16247	17	0	28	2582	-100	-5368	-177.274231	4.209017	3.005641
D:	4445.01	-1427	-766	-16582	3	224	-20	2582	-100	-5368	-177.360352	4.913525	3.296385
D:	4448.58	-1426	-723	-16279	88	195	-7	2582	-72	-5340	-177.462219	5.001432	3.124780
D:	4452.18	-1238	-753	-16303	74	154	-20	2567	-72	-5340	-177.360748	4.338053	3.369280
D:	4456.09	-1380	-572	-16169	24	209	-131	2567	-72	-5340	-177.360748	4.875396	2.221873
D:	4459.74	-1380	-572	-16169	68	75	69	2567	-72	-5340	-177.979172	4.383248	3.463535
D:	4463.30	-1284	-789	-16733	-73	94	-36	2567	-72	-5340	-177.305603	4.810429	3.236829
D:	4467.88	-1340	-763	-17335	-4	196	-98	2567	-72	-5340	-177.484985	4.416060	2.957960
D:	4473.00	-1067	-517	-15086	81	146	6	2561	-84	-5397	-178.042480	4.043423	2.071362
D:	4477.72	-621	-296	-14485	-95	477	-149	2561	-84	-5397	-178.834595	2.454438	2.361382
D:	4482.48	-1251	-677	-17823	276	-278	-2	2561	-84	-5397	-177.829926	4.934680	3.826982
D:	4487.28	-1457	-893	-16852	201	177	13	2561	-84	-5397	-176.971924	4.568011	2.333591
D:	4491.89	-1092	-600	-16897	-26	320	-177	2561	-78	-5341	-177.971573	3.695490	2.203658
D:	4496.03	-1539	-837	-17223	-112	-119	-24	2561	-78	-5341	-177.971573	5.100395	3.430336
D:	4499.61	-1539	-837	-17223	-253	112	57	2561	-78	-5341	-177.222977	4.485716	3.760204
D:	4503.18	-1284	-837	-16346	-96	345	-152	2561	-78	-5341	-177.073929	4.011007	3.136012
D:	4506.76	-1103	-702	-15715	-91	77	-92	2561	-78	-5341	-177.447495	4.272398	1.958542
D:	4510.40	-1249	-560	-16710	165	-198	-42	2561	-78	-5341	-178.085815	5.663535	2.667646
D:	4514.26	-1665	-772	-16772	32	72	63	2559	-101	-5305	-177.369812	4.416684	2.705397
D:	4518.13	-1256	-738	-16245	200	153	50	2559	-101	-5305	-177.404114	4.416684	2.548344
D:	4521.95	-1130	-699	-16031	119	153	50	2559	-101	-5305	-177.508560	4.028325	2.149536
D:	4525.64	-1507	-678	-16763	139	20	62	2559	-101	-5305	-177.689102	5.133079	3.211107
D:	4529.46	-1306	-852	-16914	145	-36	93	2559	-101	-5305	-177.121536	4.409844	3.826364
D:	4533.14	-1247	-674	-16050	63	136	-1	2562	-79	-5533	-177.600571	4.438888	2.940987
D:	4536.71	-1322	-712	-16608	10	187	24	2562	-79	-5533	-177.550430	4.547134	3.023621
D:	4540.25	-1428	-796	-17001	91	38	58	2562	-79	-5533	-177.324539	4.796205	3.413591
D:	4543.85	-1428	-796	-17001	54	118	64	2562	-79	-5533	-177.324539	4.436678	2.991558
D:	4547.39	-1269	-694	-16341	58	155	-18	2562	-79	-5533	-177.573349	4.335825	3.336796
D:	4551.25	-1239	-745	-16325	26	1	19	2558	-94	-5464	-177.392319	5.226884	2.737130
D:	4554.86	-1509	-723	-16480	105	73	3	2558	-94	-5464	-177.493210	4.959337	2.551978
D:	4558.53	-1448	-698	-16673	5	178	-64	2558	-94	-5464	-177.607986	4.525618	2.820762
D:	4562.14	-1286	-716	-16232	5	139	-45	2558	-94	-5464	-177.479523	4.525618	2.985863
D:	4565.72	-1314	-750	-16399	-53	139	-45	2558	-94	-5464	-177.386658	4.576514	2.983903
D:	4569.27	-1344	-757	-16695	-255	117	-15	2558	-94	-5464	-177.409058	4.597996	3.174942
D:	4572.93	-1410	-550	-16021	67	57	-16	2567	-70	-5186	-178.039063	5.026815	2.053433
D:	4576.58	-1281	-775	-16169	-29	31	-29	2567	-70	-5186	-177.261078	4.524796	3.439354
D:	4580.16	-1335	-647	-16470	93	28	-25	2567	-70	-5186	-177.261078	4.630643	2.569894
D:	4583.70	-1335	-647	-16470	104	209	-11	2567	-70	-5186	-177.755615	4.963554	2.959803
D:	4587.55	-1421	-711	-16347	94	168	-28	2567	-70	-5186	-177.514771	4.875023	2.815630
D:	4591.25	-1412	-694	-16541	157	2	57	2562	-94	-5306	-177.602722	4.693089	2.747954
D:	4594.86	-1340	-730	-16307	67	60	95	2562	-94	-5306	-177.442032	4.281949	3.068453
D:	4598.86	-1234	-783	-16463	56	142	98	2562	-94	-5306	-177.282227	5.234474	2.617404
D:	4602.62	-1498	-717	-16336	69	64	38	2562	-94	-5306	-177.492081	4.540981	2.911976
D:	4606.17	-1308	-761	-16452	69	85	4	2562	-94	-5306	-177.356857	4.540981	2.689251
D:	4609.85	-1380	-727	-16422	-40	85	4	2562	-94	-5306	-177.470398	4.798949	3.422554
D:	4613.59	-1367	-735	-16209	-31	92	87	2562	-67	-5452	-177.408920	4.815898	3.416913
D:	4617.23	-1293	-789	-16717	-38	26	-94	2567	-67	-5452	-177.303024	4.418049	3.651414
D:	4620.81	-1399	-659	-16171	9	62	-25	2567	-67	-5452	-177.671616	4.940578	2.932527
D:	4624.48	-1389	-621	-16190	93	113	33	2567	-67	-5452	-177.808624	4.900168	2.689627
D:	4628.32	-1400	-706	-16318	67	14	-42	2567	-67	-5452	-177.527863	4.899257	3.194593
D:	4632.20	-1308	-703	-16187	-29	107	-3	2567	-67	-5452	-177.518448	4.615586	3.239158
D:	4635.87	-1362	-663	-16394	92	86	-2	2574	-79	-5353	-177.518448	4.745459	2.614951
D:	4639.81	-1362	-663	-16394	70	88	-44	2574	-79	-5353	-177.689377	4.730552	2.931483
D:	4643.51	-1379	-725	-16649	90	143	7	2574	-79	-5353	-177.511795	4.942793	2.867671
D:	4647.15	-1406	-700	-16243	66	46	12	2574	-79	-5353	-177.537582	4.803957	2.934794
D:	4650.75	-1409	-731	-16750	96	115	62	2574	-79	-5353	-177.506348	4.881684	2.537577
D:	4654.55	-1388	-646	-16239	51	-5	-15	2574	-79	-5353	-177.727173	4.688065	2.965894
D:	4658.26	-1338	-688	-16302	51	57	-30	2576	-75	-5482	-177.588608	4.459538	3.361731
D:	4662.16	-1263	-741	-16180	57	28	92	2576	-75	-5482	-177.383072	4.588180	2.858058
D:	4665.88	-1306	-668	-16261	84	28	92	2576	-75	-5482	-177.652847	4.588128	3.202096
D:	4669.62	-1411	-735	-16451	50	52	-55	2576	-75	-5482	-177.447067	4.897536	3.215332
D:	4673.41	-1366	-608	-16386	139	80	25	2576	-75	-5482	-177.880264	4.762257	2.107719
D:	4677.16	-1163	-745	-16177	64	70	72	2568	-88	-5290	-177.368454	4.107827	3.026610
D:	4680.86	-1295	-699	-16371	159	110	-25	2568	-88	-5290	-177.560333	4.518900	2.649494
D:	4684.48	-1376	-577	-16208	140	42	17	2568	-88	-5290	-177.966385	4.849652	1.910324
D:	4688.03	-1444	-683	-16307	80	73	71	2568	-88	-5290	-177.966385	5.056135	2.526773
D:	4691.61	-1444	-683	-16307	76	76	1	2568	-88	-5290	-177.606888	5.156876	3.008741
D:	4695.14	-1469	-761	-16260	34	104	-2	2563	-46	-5274	-177.325638	4.819958	3.503393
D:	4698.72	-1384	-714	-16398	47	83	37	2563	-46	-5274	-177.512054	5.109926	3.651943
D:	4702.38	-1473	-746	-16456	-209	96	-30	2563	-46	-5274	-177.409607	4.676771	2.769163
D:	4706.00	-1342	-592	-16395	-5	48	-54	2563	-46	-5274	-177.937271	4.676573	4.076249
D:	4709.65	-1296	-806	-16494	-4	48	-54	2563	-46	-5274	-177.207626	4.487529	4.076249
D:	4713.22	-1338	-715	-16347	58	98	-38	2563	-46	-5274	-177.500763	4.674910	3.031255
D:	4716.99	-1352	-771	-16364	-81	113	18	2573	-76	-5376	-177.307678	4.718001	3.371479
D:	4720.66	-1253	-731	-16560	-4	276	-34	2573	-76	-5376	-177.477707	4.322931	3.105134
D:	4724.26	-1389	-649	-16288	-122	128	-18	2573	-76	-5376	-177.723495	4.870546	2.618237
D:	4727.87	-1389	-649	-16288	-59	132	-86	2573	-76	-5376	-177.723495	4.374439	2.777455
D:	4731.65	-1262	-676	-16484	-43	97	-126	2573	-76	-5376	-177.656891	4.620458	2.912679
D:	4735.54	-1337	-703	-16529	-17	99	13	2570	-69	-5362	-177.569839	5.036141	2.790591
D:	4739.19	-1435	-658	-16271	51	171	-29	2570	-69	-5362	-177.689453	4.581048	3.030466
D:	4742.74	-1350	-714	-16834	139	172	-26	2570	-69	-5362	-177.576538	5.101796	3.098166
D:	4746.38	-1459	-711	-16327	139	118	-28	2570	-69	-5362	-177.511719	5.101796	3.174914
D:	4750.10	-1411	-725	-16430	2	17	52	2570	-69	-5362	-177.478592	4.903884	3.227433
D:	4753.77	-1340	-730	-16437	107	17	52	2570	-69	-5362	-177.462296	4.656207	3.148584
D:	4757.31	-1424	-761	-16329	207	87	84	2571	-69	-5299	-177.336945	4.978744	3.367688
D:	4761.03	-1170	-764	-16747	212	112	-16	2571	-69	-5299	-177.393204	3.992355	3.366579
D:	4764.84	-1441	-613	-16265	79	65	44	2571	-69	-5299	-177.846893	5.059485	2.469940
D:	4768.48	-1465	-705	-16541	146	49	113	2571	-69	-5299	-177.564682	5.056936	2.962772
D:	4772.07	-1360	-738	-16352	168	143	5	2571	-69	-5299	-177.564682	4.749690	3.242250
D:	4775.60	-1360	-738	-16352	189	58	-33	2571	-69	-5487	-177.421112	4.363796	3.662337
D:	4779.14	-1243	-771	-16271	79	121	-51	2567	-52	-5487	-177.292297	4.617000	4.085064
D:	4782.70	-1340	-805	-16574	41	113	-61	2567	-52	-5487	-177.224548	4.674866	3.698893
D:	4786.25	-1332	-731	-16273	41	175	-25	2567	-52	-5487	-177.433167	3.776006	3.992401
D:	4789.82	-1091	-771	-16513	-44	175	-25	2567	-52	-5487	-177.332001	3.776000	3.875962
D:	4793.40	-1354	-767	-16339	51	65	70	2567	-52	-5487	-177.317566	4.732184	3.902146
D:	4797.00	-1333	-690	-16218	-23	97	76	2567	-52	-5487	-177.569031	4.694639	2.696842
D:	4800.98	-1493	-695	-16667	-19	231	34	2569	-86	-5343	-177.617432	5.114521	2.578643
D:	4804.76	-1336	-721	-16378	6	219	38	2569	-86	-5343	-177.484558	4.659099	2.850059
D:	4808.39	-1362	-836	-16739	-26	145	29	2569	-86	-5343	-177.146057	4.646102	3.453446
D:	4811.98	-1414	-789	-16425	-50	155	-38	2569	-86	-5343	-177.146057	4.914869	3.233758
D:	4815.62	-1414	-789	-16425	-5	109	-20	2569	-86	-5343	-177.255051	4.447992	2.853691
D:	4819.14	-1258	-709	-16157	24	81	33	2573	-76	-5426	-177.492599	4.578417	3.151666
D:	4822.70	-1318	-731	-16443	27	118	25	2573	-76	-5426	-177.459732	4.925735	2.476846
D:	4826.26	-1403	-621	-16268	27	124	-49	2573	-76	-5426	-177.819138	4.530658	3.000487
D:	4829.82	-1324	-717	-16694	60	124	-49	2573	-76	-5426	-177.545914	4.530607	3.185326
D:	4833.38	-1433	-730	-16136	56	153	-4	2573	-76	-5426	-177.414917	5.069980	3.185326
D:	4837.06	-1225	-677	-16392	59	120	116	2573	-76	-5426	-177.640244	4.270359	2.610297
D:	4840.61	-1585	-810	-16883	94	140	111	2560	-86	-5342	-177.258453	5.357321	3.194909
D:	4844.40	-1203	-227	-15183	86	263	-19	2560	-86	-5342	-179.148727	4.529902	-0.118142
D:	4848.53	-1262	-708	-16069	201	183	37	2560	-86	-5342	-177.482407	4.486379	2.876517
D:	4852.30	-1585	-749	-18017	194	3	9	2560	-86	-5342	-177.624725	5.023340	2.579634
D:	4856.05	-1181	-737	-15118	192	262	209	2560	-86	-5342	-177.624725	4.461661	3.359788
D:	4859.71	-1181	-737	-15118	177	454	-80	2559	-62	-5511	-177.214294	3.708269	2.159181
D:	4863.25	-1009	-485	-15561	208	112	66	2559	-62	-5511	-178.220047	4.598570	3.786539
D:	4867.05	-1393	-817	-17300	188	50	59	2559	-62	-5511	-177.301422	4.970837	2.980244
D:	4870.80	-1500	-687	-17233	26	236	-101	2559	-62	-5511	-177.722336	4.983171	0.263600
D:	4874.63	-1348	-213	-15459	43	241	-127	2559	-62	-5511	-179.215881	3.976681	5.465104
D:	4878.38	-1136	-1016	-16310	-213	-21	-14	2559	-62	-5511	-176.440674	5.090117	1.295800
D:	4882.00	-1516	-419	-17027	-53	-71	25	2552	-63	-5332	-178.595612	5.086535	4.848420
D:	4885.78	-1340	-959	-16159	-54	-71	25	2552	-63	-5332	-176.608810	4.732310	4.847088
D:	4889.40	-1357	-614	-16353	-53	27	-36	2552	-63	-5332	-177.854996	4.740448	2.630898
D:	4893.03	-1346	-565	-16230	-96	233	-130	2552	-63	-5332	-178.011459	4.738136	2.352018
D:	4896.63	-1456	-725	-16723	-91	53	-26	2552	-63	-5332	-177.522812	4.971450	3.020159
D:	4900.48	-1263	-772	-16335	28	59	3	2574	-66	-5194	-177.299408	4.416456	3.458845
D:	4904.18	-1178	-843	-16082	-5	169	-26	2574	-66	-5194	-177.299408	4.183811	3.999935
D:	4907.74	-1178	-843	-16082	68	-201	-38	2574	-66	-5194	-177.004593	4.195901	2.689556
D:	4911.40	-1223	-656	-16658	13	19	14	2574	-66	-5194	-177.750076	4.788790	3.913133
D:	4915.30	-1376	-857	-16403	4	80	8	2574	-66	-5194	-177.014420	3.671704	3.342371
D:	4918.95	-1055	-745	-16424	112	-13	-1	2574	-66	-5194	-177.408051	4.807615	3.384424
D:	4922.50	-1369	-797	-16258	53	-23	20	2559	-87	-5401	-177.198730	4.907456	2.714728
D:	4926.12	-1403	-695	-16326	53	119	-81	2559	-87	-5401	-177.567612	4.907456	3.168035
D:	4929.74	-1251	-757	-16271	6	119	-81	2559	-87	-5401	-177.341492	4.391949	3.168035
D:	4933.26	-1360	-632	-16143	67	54	102	2559	-87	-5401	-177.763245	4.812101	2.371348
D:	4936.83	-1194	-752	-16336	79	51	119	2559	-87	-5401	-177.369583	4.176038	2.967378
D:	4940.37	-1401	-668	-16369	135	68	93	2559	-87	-5193	-177.668350	4.888040	2.388790
D:	4944.02	-1316	-793	-16127	87	165	140	2558	-49	-5193	-177.668350	4.659662	3.968345
D:	4947.77	-1316	-793	-16127	34	5	79	2558	-49	-5193	-177.190125	4.477731	3.032454
D:	4951.48	-1296	-655	-16537	21	48	-1	2558	-49	-5193	-177.737061	4.469898	4.014019
D:	4955.10	-1291	-815	-16495	101	-47	86	2558	-49	-5193	-177.176590	4.569155	4.147324
D:	4958.73	-1301	-827	-16259	63	-28	26	2558	-49	-5193	-177.093445	4.561447	3.305099
D:	4962.26	-1301	-691	-16293	63	-91	242	2558	-49	-5193	-177.576736	4.513642	3.355306
D:	4965.84	-1306	-760	-16530	2	-91	242	2549	-70	-5298	-177.372803	4.512818	3.741525
D:	4969.48	-1237	-819	-16546	27	-23	-31	2549	-70	-5298	-177.171494	4.270469	3.741525
D:	4972.99	-1367	-691	-16321	10	-106	9	2549	-70	-5298	-177.580887	4.783630	2.959854
D:	4976.57	-1306	-689	-16768	-15	-74	-17	2549	-70	-5298	-177.652267	4.449965	2.861692
D:	4980.13	-1372	-747	-16388	59	-50	45	2549	-70	-5298	-177.652267	4.780831	3.288688
D:	4983.70	-1372	-747	-16388	-58	-100	6	2560	-69	-5433	-177.395386	5.066109	3.061528
D:	4987.24	-1443	-692	-16263	-46	-47	18	2560	-69	-5433	-177.568726	4.491929	3.704859
D:	4990.83	-1290	-791	-16402	23	-61	-14	2560	-69	-5433	-177.244232	4.609448	3.115856
D:	4994.52	-1305	-690	-16172	-96	-24	-52	2560	-69	-5433	-177.562119	3.472619	3.706595
D:	4998.33	-1008	-782	-16593	-96	-21	-10	2560	-69	-5433	-177.306961	4.672226	3.517001
D:	5001.92	-1350	-769	-16501	-23	-21	-10	2560	-69	-5433	-177.337006	4.672225	3.280065
D:	5005.59	-1276	-787	-16325	-81	55	-9	2562	-87	-5339	-177.245239	4.464253	3.249806
D:	5009.40	-1379	-711	-16491	-66	134	18	2562	-87	-5339	-177.536499	4.775755	2.732428
D:	5013.17	-1448	-678	-16341	-71	127	26	2562	-87	-5339	-177.629364	5.059656	2.545961
D:	5016.80	-1334	-769	-16595	-41	52	-17	2562	-87	-5339	-177.352097	4.591106	3.076871
D:	5020.37	-1326	-755	-16367	-17	153	10	2562	-87	-5339	-177.364090	4.627036	3.052177
D:	5024.04	-1385	-753	-16331	62	106	119	2550	-55	-5165	-177.365265	4.842566	3.517295
D:	5027.70	-1385	-753	-16331	128	19	62	2550	-55	-5165	-177.365265	3.679569	3.241777
D:	5031.53	-1081	-709	-16795	17	53	-30	2550	-55	-5165	-177.587921	4.703541	3.202616
D:	5035.28	-1347	-700	-16357	61	-57	-45	2550	-55	-5165	-177.554733	4.407256	3.309469
D:	5039.15	-1262	-713	-16359	-4	39	78	2550	-55	-5165	-177.509598	4.776167	3.155557
D:	5042.84	-1381	-700	-16514	-5	-110	-12	2550	-55	-5165	-177.578033	4.661294	2.869381
D:	5046.54	-1333	-684	-16335	39	-107	38	2543	-77	-5401	-177.607483	4.294592	3.334261
D:	5050.28	-1219	-746	-16216	39	-144	-18	2543	-77	-5401	-177.371246	4.697509	3.735503
D:	5053.93	-1330	-813	-16169	92	-144	-18	2543	-77	-5401	-177.126740	4.696577	2.796714
D:	5057.48	-1241	-673	-16462	-2	-191	-3	2543	-77	-5401	-177.664185	4.307673	2.796714
D:	5060.98	-1379	-690	-16400	52	-33	-7	2543	-77	-5401	-177.596039	4.802343	2.694967
D:	5064.53	-1334	-760	-16335	-25	71	-35	2564	-85	-5386	-177.341415	4.663822	3.163049
D:	5068.12	-1278	-776	-16752	60	-29	56	2564	-85	-5386	-177.341415	4.358084	3.171393
D:	5071.72	-1278	-776	-16752	30	-62	-65	2564	-85	-5386	-177.353012	4.559620	2.491290
D:	5075.29	-1310	-655	-16414	64	3	19	2564	-85	-5386	-177.720078	4.777837	2.812233
D:	5079.06	-1373	-709	-16412	45	17	13	2564	-85	-5386	-177.531601	4.854650	2.427486
D:	5082.87	-1401	-651	-16483	12	31	22	2564	-85	-5386	-177.743500	5.310547	2.927691
D:	5086.39	-1508	-668	-16210	-244	34	-47	2562	-65	-5362	-177.645462	4.127991	3.309900
D:	5090.03	-1197	-727	-16570	-46	54	-62	2562	-65	-5362	-177.493027	4.127976	2.530920
D:	5093.61	-1425	-604	-16315	54	54	-62	2562	-65	-5362	-177.885071	4.988461	2.536913
D:	5097.13	-1397	-708	-16256	50	28	6	2562	-65	-5362	-177.511398	4.907304	3.200590
D:	5100.98	-1315	-646	-16485	75	85	-233	2562	-65	-5362	-177.761124	4.557449	2.786128
D:	5104.78	-1397	-683	-16251	-21	193	-80	2562	-65	-5362	-177.598602	4.909124	2.431854
D:	5108.46	-1336	-733	-16341	-43	50	-46	2557	-92	-5217	-177.436859	4.669430	2.732100
D:	5112.42	-1404	-751	-16592	-44	78	-1	2557	-92	-5217	-177.413620	4.832014	2.759665
D:	5116.04	-1433	-741	-16394	19	44	-5	2557	-92	-5217	-177.417267	4.990606	2.740736
D:	5119.71	-1433	-741	-16394	28	141	7	2557	-92	-5217	-177.417267	5.039486	2.634355
D:	5123.39	-1415	-708	-16031	117	22	52	2557	-92	-5217	-177.476440	4.775282	2.670053
D:	5127.16	-1349	-715	-16133	18	-17	100	2564	-59	-5396	-177.467606	4.517042	3.729449
D:	5130.85	-1308	-777	-16539	73	-27	8	2564	-59	-5396	-177.315475	5.053883	3.292718
D:	5134.56	-1463	-715	-16528	57	24	2	2564	-59	-5396	-177.528152	4.644823	2.957850
D:	5138.12	-1324	-645	-16284	57	85	-16	2564	-59	-5396	-177.736954	4.644823	3.436424
D:	5141.69	-1166	-728	-16695	32	85	-16	2564	-59	-5396	-177.508377	3.991460	3.332922
D:	5145.28	-1421	-689	-16219	-34	-17	65	2564	-59	-5396	-177.572708	5.002745	2.661615
D:	5148.93	-1360	-707	-16287	44	-25	-24	2564	-85	-5305	-177.519653	4.768919	2.773679
D:	5152.54	-1428	-752	-16391	66	18	39	2564	-85	-5305	-177.378418	4.974033	3.004930
D:	5156.16	-1443	-689	-16206	147	45	41	2564	-85	-5305	-177.378418	5.083842	2.658718
D:	5159.72	-1443	-689	-16206	166	8	-83	2564	-85	-5305	-177.570770	4.966830	3.259592
D:	5163.39	-1418	-789	-16298	-50	20	-43	2564	-85	-5305	-177.233658	5.263769	2.883165
D:	5167.20	-1497	-729	-16233	31	40	-39	2554	-76	-5362	-177.433884	4.091033	3.372889
D:	5170.84	-1174	-761	-16397	61	-5	-16	2554	-76	-5362	-177.347992	4.896972	3.052556
D:	5174.58	-1415	-727	-16500	44	-3	-15	2554	-76	-5362	-177.482391	4.633132	3.339254
D:	5178.40	-1326	-762	-16345	44	-26	8	2554	-76	-5362	-177.336044	4.832256	3.014791
D:	5182.18	-1406	-725	-16616	18	-4	-42	2554	-76	-5362	-177.506851	4.832256	2.484973
D:	5185.72	-1411	-634	-16473	85	-4	-42	2554	-76	-5362	-177.801178	4.892279	2.457680
D:	5189.30	-1358	-730	-16253	99	-41	-30	2576	-72	-5233	-177.433548	4.771539	3.105460
D:	5193.04	-1489	-645	-16334	91	-14	-35	2576	-72	-5233	-177.743912	5.204781	2.534107
D:	5196.66	-1377	-609	-16266	128	-50	5	2576	-72	-5233	-177.861084	4.835614	2.357667
D:	5200.40	-1417	-759	-16327	68	-69	-30	2576	-72	-5233	-177.343628	4.955022	3.244420
D:	5204.16	-1395	-678	-16319	-19	-4	-106	2576	-72	-5233	-177.626160	4.881901	2.761835
D:	5207.74	-1395	-678	-16319	11	1	13	2574	-61	-5498	-177.626160	4.493903	3.405694
D:	5211.26	-1284	-711	-16322	22	-82	-36	2574	-61	-5498	-177.510971	5.142478	3.451062
D:	5214.98	-1495	-741	-16596	61	57	-58	2574	-61	-5498	-177.448715	4.750789	3.943672
D:	5218.70	-1348	-794	-16201	23	54	17	2574	-61	-5498	-177.199448	4.387353	3.510635
D:	5222.53	-1268	-734	-16511	23	45	-67	2574	-61	-5498	-177.459808	5.313065	2.966530
