Syntax version=4
Wed May 02 13:38:49 2018
Starting process (2533211 clocks per sec)

LogRawData=false
VarHeader=1
D:		imu_acc_x	imu_acc_y	imu_acc_z	imu_gyro_x	imu_gyro_y	imu_gyro_z	imu_mag_x	imu_mag_y	imu_mag_z	Roll	Pitch	Yaw
D:	time(ms)	(0x20000236,3)	(0x20000238,3)	(0x2000023a,3)	(0x2000022a,3)	(0x2000022c,3)	(0x2000022e,3)	(0x20000230,3)	(0x20000232,3)	(0x20000234,3)	(0x200004dc,6)	(0x200005c4,6)	(0x20000484,6)
D:	0.07	-1798	-25	-16503	143	111	104	2510	95	-5088	-179.918503	6.218020	1.931081
D:	3.82	-1798	-47	-16420	107	87	125	2510	95	-5088	-179.841293	6.249186	2.058132
D:	7.46	-1815	-61	-16303	73	159	142	2510	95	-5088	-179.841293	6.352678	2.136052
D:	11.00	-1815	-61	-16303	53	136	69	2510	95	-5088	-179.790924	6.439036	2.126804
D:	14.56	-1862	-61	-16499	31	166	-22	2518	103	-5052	-179.793488	6.538075	0.810254
D:	18.26	-1869	192	-16307	78	101	27	2518	103	-5052	179.330719	6.455750	1.726988
D:	21.96	-1862	34	-16456	141	106	73	2518	103	-5052	179.886932	5.990613	2.124633
D:	25.67	-1737	-31	-16553	141	83	72	2518	103	-5052	-179.898010	6.780247	1.492483
D:	29.20	-1938	72	-16301	131	83	72	2518	103	-5052	179.752243	6.780115	2.171456
D:	33.20	-1733	-39	-16542	106	120	158	2518	103	-5052	-179.870224	6.103671	1.658333
D:	38.26	-1765	10	-16506	94	218	114	2507	91	-5112	179.970596	5.582912	2.118915
D:	43.35	-1753	-15	-16545	102	107	75	2507	91	-5112	-179.953369	6.048297	1.806869
D:	48.32	-1835	22	-16353	191	134	119	2507	91	-5112	179.928223	6.402665	1.992959
D:	53.27	-1726	-46	-16587	141	87	133	2507	91	-5112	-179.846405	6.065497	2.284321
D:	58.11	-1744	-35	-16413	130	97	89	2511	110	-4995	-179.883133	6.300940	2.034974
D:	61.72	-1796	6	-16266	130	123	76	2511	110	-4995	179.984177	6.479922	2.059740
D:	65.31	-1878	0	-16535	172	77	145	2511	110	-4995	180.005310	6.479922	1.905987
D:	69.11	-1937	25	-16460	223	77	145	2511	110	-4995	179.918274	6.711845	2.594453
D:	72.74	-1626	-84	-16520	171	105	110	2511	110	-4995	-179.713959	5.621391	2.555589
D:	76.31	-1729	0	-16310	139	82	109	2512	108	-5014	180.005310	6.051423	2.043743
D:	79.85	-1782	-31	-16337	111	130	178	2512	108	-5014	-179.896591	6.225245	2.213159
D:	83.67	-1944	-31	-16517	73	131	65	2512	108	-5014	-179.897781	6.712841	2.199852
D:	88.96	-1824	90	-16220	85	142	114	2512	108	-5014	179.687378	6.070496	2.704194
D:	93.69	-1751	-115	-16465	155	52	80	2512	108	-5014	-179.605118	6.130656	2.486484
D:	98.27	-1756	-9	-16349	2	58	49	2511	129	-5027	-179.973755	6.412688	2.220915
D:	103.08	-1599	-21	-16590	49	-187	51	2511	129	-5027	-179.932770	5.505512	2.599427
D:	107.66	-1806	-43	-16345	54	137	77	2511	129	-5027	-179.854568	6.305343	2.671786
D:	111.72	-1772	14	-16528	146	80	114	2511	129	-5027	179.956787	6.119598	2.355538
D:	115.47	-1739	-10	-16422	92	80	152	2511	129	-5027	-179.970413	6.044959	2.498657
D:	119.30	-1822	-43	-16353	23	107	71	2505	87	-5039	-179.970413	6.357662	1.884130
D:	122.90	-1822	-43	-16353	114	77	77	2505	87	-5039	-179.854645	5.108070	1.912051
D:	126.81	-1479	-37	-16546	104	142	67	2505	87	-5039	-179.877182	6.071375	1.439145
D:	130.49	-1749	36	-16444	49	122	140	2505	87	-5039	179.879868	6.084640	1.519199
D:	134.51	-1744	22	-16361	84	16	100	2505	87	-5039	179.928253	6.019003	1.564603
D:	139.75	-1794	-25	-16375	115	37	77	2522	129	-5256	-179.917831	6.252410	2.547904
D:	144.92	-1745	-28	-16415	114	59	93	2522	129	-5256	-179.907562	6.068221	2.137313
D:	149.46	-1807	45	-16621	159	124	55	2522	129	-5256	179.850174	6.111925	2.803604
D:	154.04	-1752	-66	-16362	144	78	94	2522	129	-5256	-179.774185	5.802593	2.590827
D:	158.72	-1682	-27	-16552	92	157	54	2524	83	-5045	-179.911850	6.216782	1.862648
D:	162.76	-1780	-53	-16341	153	110	94	2524	83	-5045	-179.819473	6.145794	2.267684
D:	166.47	-1784	-124	-16568	75	90	116	2524	83	-5045	-179.576477	5.675831	2.070358
D:	170.37	-1650	-85	-16602	113	121	143	2524	83	-5045	-179.711960	6.274221	2.140139
D:	174.29	-1822	-103	-16572	173	26	95	2524	83	-5045	-179.649185	6.033711	1.837830
D:	178.04	-1759	-48	-16642	156	75	90	2524	83	-5045	-179.840057	6.407021	2.426732
D:	181.99	-1822	-31	-16226	151	55	80	2524	120	-4863	-179.895828	5.341851	2.977519
D:	186.33	-1553	-117	-16609	167	122	118	2524	120	-4863	-179.601685	6.396696	2.319810
D:	191.69	-1771	-29	-16391	131	27	102	2524	120	-4863	-179.903931	6.166893	2.434688
D:	197.04	-1762	-71	-16547	62	58	47	2524	120	-4863	-179.759460	6.103845	2.428477
D:	202.34	-1758	-47	-16440	181	-48	125	2504	114	-5096	-179.841507	6.292297	2.253600
D:	207.70	-1768	-7	-16383	157	3	127	2504	114	-5096	-179.980835	6.159518	2.191276
D:	212.60	-1893	3	-16373	85	92	19	2504	114	-5096	179.994797	6.595288	2.174514
D:	216.70	-1574	13	-16457	146	136	14	2504	114	-5096	179.960052	5.463492	2.236356
D:	220.48	-1869	44	-16565	80	74	42	2520	120	-4889	179.853104	6.437526	2.008040
D:	224.12	-1739	-32	-16375	116	66	91	2520	120	-4889	-179.893326	6.062171	2.454707
D:	227.65	-1757	-48	-16382	95	64	99	2520	120	-4889	-179.837433	6.121832	2.540976
D:	231.23	-1757	-48	-16382	134	12	154	2520	120	-4889	-179.837433	6.311489	2.163220
D:	235.05	-1806	17	-16329	181	102	124	2520	120	-4889	179.945648	6.141331	2.380618
D:	238.83	-1782	-20	-16562	194	91	134	2517	108	-5038	-179.936127	6.167037	2.306025
D:	242.44	-1757	-47	-16261	144	79	165	2517	108	-5038	-179.839706	6.551179	1.896813
D:	246.02	-1880	20	-16371	232	4	201	2517	108	-5038	179.935318	5.924789	2.028416
D:	250.28	-1713	3	-16507	171	89	104	2517	108	-5038	179.994904	6.287916	2.192312
D:	254.94	-1810	-29	-16427	139	10	63	2517	108	-5038	-179.904144	5.806016	1.999848
D:	259.47	-1765	-42	-16485	226	28	107	2517	108	-5303	-179.859329	6.111370	2.987001
D:	264.03	-1848	-131	-16236	227	30	49	2526	147	-5303	-179.543030	6.493507	3.492851
D:	268.51	-1653	-114	-16716	126	38	137	2526	147	-5303	-179.614563	5.647500	3.494509
D:	273.17	-1814	-130	-16639	106	141	185	2526	147	-5303	-179.557663	5.740144	3.030579
D:	277.14	-1659	-44	-16504	138	141	185	2526	147	-5303	-179.852570	5.740302	3.285122
D:	280.80	-1711	-89	-16515	155	20	195	2526	147	-5303	-179.696533	5.914989	2.348537
D:	284.38	-1552	-89	-16170	178	19	103	2501	96	-5180	-179.689941	5.482546	2.389071
D:	287.97	-1554	-123	-16618	118	65	48	2501	96	-5180	-179.581223	5.342380	2.587825
D:	291.55	-1866	54	-16433	180	115	80	2501	96	-5180	179.817032	6.478458	1.473930
D:	295.10	-1866	54	-16433	125	30	80	2501	96	-5180	179.817032	6.151200	1.575903
D:	298.64	-1767	39	-16396	123	112	96	2501	96	-5180	179.869019	5.810102	2.042973
D:	302.33	-1702	-37	-16727	-42	92	93	2516	129	-5078	-179.878555	6.303811	2.490914
D:	306.10	-1805	-13	-16340	22	91	64	2516	129	-5078	-179.959732	6.186893	2.999162
D:	309.64	-1774	-99	-16365	22	156	83	2516	129	-5078	-179.658707	6.014866	3.033343
D:	313.23	-1734	-103	-16457	105	156	83	2516	129	-5078	-179.646698	6.014866	2.710347
D:	317.23	-1629	-43	-16336	82	114	30	2516	129	-5078	-179.854492	5.332253	2.790941
D:	321.55	-1558	-53	-16693	-19	25	18	2516	129	-5078	-179.823380	6.511022	1.773613
D:	325.84	-1871	-10	-16394	8	99	135	2510	92	-5095	-179.970367	6.455157	2.114578
D:	330.29	-1846	-68	-16316	-25	126	67	2510	92	-5095	-179.766510	5.680240	1.819312
D:	335.56	-1924	14	-16528	-27	62	83	2510	92	-5095	179.956787	6.640026	1.629545
D:	340.20	-1707	-4	-16391	84	119	102	2510	92	-5095	-179.991333	5.945670	2.506335
D:	344.71	-1754	-16	-16582	58	125	88	2516	131	-5004	-179.950027	6.038318	2.971067
D:	348.84	-1760	-87	-16438	82	50	49	2516	131	-5004	-179.702057	6.111414	2.971067
D:	352.43	-1670	-34	-16325	79	151	71	2516	131	-5004	-179.885971	5.841033	2.688171
D:	355.96	-1857	3	-16444	33	96	123	2516	131	-5004	179.994843	6.443233	2.433061
D:	359.57	-1802	34	-16403	139	94	138	2516	131	-5004	179.886551	6.269429	2.266854
D:	363.32	-1654	-31	-16263	44	121	101	2507	101	-5054	-179.896088	5.807361	2.108192
D:	367.02	-1654	-31	-16263	168	76	85	2507	101	-5054	-179.896088	6.489173	1.509530
D:	370.68	-1840	65	-16177	81	-12	70	2507	101	-5054	179.775085	6.268878	2.574681
D:	374.29	-1811	-117	-16486	104	106	93	2507	101	-5054	-179.598679	5.985059	2.464537
D:	377.83	-1718	-94	-16387	125	119	65	2507	101	-5054	-179.676636	6.575118	2.125201
D:	381.34	-1898	-42	-16467	125	129	113	2507	101	-5054	-179.859177	6.575118	1.987010
D:	385.56	-1696	-1	-16515	35	115	71	2519	105	-5186	-180.001831	6.210909	2.069352
D:	390.09	-1766	-18	-16228	34	123	6	2519	105	-5186	-179.941742	5.322934	2.687196
D:	394.61	-1547	-113	-16604	93	128	48	2519	105	-5186	-179.615356	6.359258	2.672373
D:	399.39	-1704	-34	-16587	89	118	131	2519	105	-5186	-179.887863	5.865640	2.510068
D:	404.50	-1805	-41	-16660	37	38	83	2517	122	-5039	-179.864304	6.183660	2.610730
D:	409.58	-1828	-57	-16388	45	113	107	2517	122	-5039	-179.806015	6.568852	2.299588
D:	413.73	-1866	-5	-16205	-200	18	73	2517	122	-5039	-179.987610	6.047570	2.551007
D:	417.65	-1744	-43	-16462	-25	166	32	2517	122	-5039	-179.855652	6.047570	2.234415
D:	421.23	-1810	9	-16361	-17	166	32	2517	122	-5039	179.973785	6.313086	2.343735
D:	424.83	-1637	-6	-16483	-14	93	105	2517	122	-5295	-179.984451	5.671866	2.482848
D:	428.43	-1810	-57	-16386	6	41	-2	2518	129	-5191	-179.806000	6.303494	2.740162
D:	431.97	-1746	13	-16247	-18	57	88	2518	129	-5191	179.959457	6.133986	2.337750
D:	435.87	-1879	-59	-16422	4	146	94	2518	129	-5191	-179.799469	6.527529	2.734227
D:	439.54	-1811	10	-16320	85	265	17	2518	129	-5191	179.970200	6.332286	2.343004
D:	443.10	-1811	10	-16320	60	174	83	2518	129	-5191	179.970200	5.581803	2.914323
D:	446.63	-1609	-77	-16464	21	71	108	2504	140	-5094	-179.737335	6.103698	2.567997
D:	450.20	-1751	13	-16375	48	77	78	2504	140	-5094	179.959839	5.512975	3.003007
D:	453.72	-1587	-53	-16443	48	136	31	2504	140	-5094	-179.820618	5.818857	2.839909
D:	457.33	-1695	-30	-16633	42	62	136	2504	140	-5094	-179.901978	5.818851	2.236594
D:	460.83	-1810	67	-16337	161	62	136	2504	140	-5094	179.770325	6.322233	2.276957
D:	464.66	-1644	-24	-16539	100	150	65	2504	140	-5094	-179.922165	5.676796	1.871358
D:	468.52	-1771	6	-16313	113	98	45	2531	93	-5200	179.984238	6.196159	1.695415
D:	472.23	-1766	-102	-16305	111	122	71	2531	93	-5200	-179.646881	6.181690	2.336842
D:	475.81	-1742	-30	-16577	43	201	132	2531	93	-5200	-179.901627	5.999097	1.916529
D:	479.43	-1822	-79	-16291	116	225	25	2531	93	-5200	-179.727448	6.381606	2.188704
D:	483.45	-1758	-87	-16510	140	78	96	2531	93	-5200	-179.703400	6.078101	2.568363
D:	487.90	-1752	-49	-16727	68	96	68	2504	109	-5161	-179.837463	5.979557	2.347340
D:	492.19	-1733	-41	-16287	26	137	108	2504	109	-5161	-179.861069	6.073801	2.301090
D:	496.49	-1737	-84	-16428	124	86	38	2504	109	-5161	-179.712326	6.035793	2.508491
D:	500.81	-1929	54	-16377	117	135	92	2504	109	-5161	179.816391	6.717916	2.561654
D:	505.16	-1690	-83	-16485	100	113	57	2504	109	-5161	-179.716812	6.448671	2.118945
D:	509.58	-1838	-23	-16262	59	147	25	2514	106	-4953	-179.924255	6.544954	0.596036
D:	513.73	-1855	242	-16167	23	138	63	2514	106	-4953	179.147690	6.294635	2.800014
D:	517.30	-1814	-142	-16445	113	138	63	2514	106	-4953	-179.510559	6.294635	1.850950
D:	520.84	-1824	24	-16185	11	161	74	2514	106	-4953	179.920349	6.430112	1.871789
D:	524.43	-1737	-60	-16496	166	71	130	2514	106	-4953	-179.796906	6.011133	2.205543
D:	528.05	-1778	-59	-16696	183	79	105	2506	98	-5107	-179.802826	6.078807	2.191442
D:	531.86	-1886	-75	-16418	140	76	107	2506	98	-5107	-179.743576	6.553192	2.261482
D:	535.71	-1717	-59	-16600	93	157	3	2506	98	-5107	-179.801666	5.905454	2.203999
D:	539.61	-1848	-13	-16598	108	50	119	2506	98	-5107	-179.960434	6.353259	1.911871
D:	543.30	-1856	-33	-16415	-4	152	167	2506	98	-5107	-179.960434	6.451060	2.023833
D:	546.86	-1856	-33	-16415	0	121	96	2514	111	-5182	-179.890121	5.717314	2.340099
D:	550.88	-1643	-39	-16411	111	195	-8	2514	111	-5182	-179.869141	6.620827	2.536433
D:	555.23	-1682	-47	-16399	176	137	8	2514	111	-5182	-179.841110	5.856340	2.378814
D:	559.50	-1702	-115	-16769	111	119	83	2514	111	-5182	-179.612366	5.795528	2.774006
D:	564.55	-1780	19	-16472	88	98	170	2514	111	-5182	179.939224	6.167750	2.789980
D:	569.74	-1670	-67	-16189	44	142	89	2507	126	-5195	-179.768173	5.983103	2.389407
D:	574.66	-1726	-2	-16469	142	140	143	2507	126	-5195	-179.998337	6.658593	2.678278
D:	578.46	-1918	-59	-16430	63	106	104	2507	126	-5195	-179.799561	5.487697	2.690409
D:	582.12	-1606	-47	-16717	116	171	74	2507	126	-5195	-179.844208	6.025791	2.356893
D:	585.81	-1744	3	-16522	112	225	89	2507	126	-5195	179.994904	5.981330	2.515053
D:	589.43	-1717	-23	-16388	112	110	69	2507	126	-5195	-179.924896	5.981330	2.415024
D:	593.12	-1836	-30	-16501	147	110	69	2511	120	-5184	-179.901138	6.349133	2.184588
D:	596.92	-1827	9	-16354	188	112	70	2511	120	-5184	179.973755	6.374599	2.205014
D:	600.79	-1749	-34	-16529	130	71	57	2511	120	-5184	-179.887436	6.040386	2.459164
D:	604.38	-1886	-43	-16684	145	75	74	2511	120	-5184	-179.857635	6.449645	2.481468
D:	607.92	-1833	4	-16233	65	143	111	2511	120	-5184	179.991196	6.442633	2.208835
D:	611.68	-1794	211	-16500	110	112	74	2509	120	-5212	179.272644	6.204918	0.999500
D:	615.41	-1902	60	-16419	74	65	101	2509	120	-5212	179.795914	6.607923	1.869996
D:	620.26	-1706	-67	-16426	102	33	109	2509	120	-5212	-179.771606	5.929591	2.665796
D:	624.83	-1709	-85	-16664	80	185	107	2509	120	-5212	-179.713043	5.855674	2.039334
D:	629.75	-1670	38	-16267	154	45	60	2509	120	-5212	179.871475	6.067246	2.444408
D:	634.93	-1773	-62	-16681	31	-17	105	2520	111	-5071	-179.792343	5.990016	2.297027
D:	639.11	-1732	-35	-16507	99	114	103	2520	111	-5071	-179.883804	6.603827	1.984938
D:	642.73	-1892	13	-16343	116	76	182	2520	111	-5071	179.959732	6.103007	2.518867
D:	646.54	-1749	-74	-16358	142	37	61	2520	111	-5071	-179.746109	6.660168	2.235472
D:	650.55	-1900	-31	-16272	117	82	-8	2508	126	-4896	-179.896149	5.594952	2.610178
D:	654.22	-1608	-32	-16415	109	193	94	2508	126	-4896	-179.893616	6.371842	2.438639
D:	657.81	-1830	-11	-16388	165	182	49	2508	126	-4896	-179.966843	6.177019	2.218177
D:	661.41	-1763	30	-16290	165	145	20	2508	126	-4896	179.899780	6.177019	2.902445
D:	664.96	-1797	-92	-16655	138	145	20	2508	126	-4896	-179.688797	6.158224	2.913270
D:	668.73	-1753	-55	-16628	27	98	37	2508	126	-4896	-179.815781	6.018298	2.195506
D:	672.45	-1824	-54	-16490	84	87	46	2529	101	-5111	-179.817688	6.312122	2.192355
D:	675.98	-1633	-116	-16821	67	120	57	2529	101	-5111	-179.610199	5.544990	2.590898
D:	679.67	-1921	-35	-16281	75	51	75	2529	101	-5111	-179.882141	6.729416	2.062022
D:	683.64	-1689	-121	-16456	64	160	23	2529	101	-5111	-179.584030	5.860181	2.612198
D:	687.20	-1689	-121	-16456	112	103	65	2529	101	-5111	-179.584030	5.937893	1.911971
D:	690.71	-1719	-2	-16528	63	122	75	2503	131	-5164	-179.998383	5.970548	2.621562
D:	694.45	-1712	-24	-16370	87	20	154	2503	131	-5164	-179.921310	5.674490	2.098239
D:	698.23	-1634	67	-16445	55	91	21	2503	131	-5164	179.771866	6.759397	2.244037
D:	702.02	-1939	31	-16360	93	112	136	2503	131	-5164	179.896744	6.129307	2.413974
D:	705.90	-1754	9	-16334	96	152	145	2503	131	-5164	179.973740	6.522976	2.885515
D:	709.61	-1877	-76	-16416	96	91	158	2503	131	-5164	-179.740051	6.191069	1.839296
D:	713.54	-1774	-39	-16354	71	125	51	2520	86	-5148	-179.868668	6.191117	2.200460
D:	717.39	-1925	-106	-16469	1	110	50	2520	86	-5148	-179.636520	6.409693	1.640885
D:	721.12	-1841	-7	-16388	85	110	50	2520	86	-5148	-179.980835	6.409825	1.502886
D:	724.80	-1920	15	-16467	38	202	2	2520	86	-5148	179.953110	6.650671	1.502886
D:	728.34	-1740	-80	-16663	50	136	2	2520	86	-5148	-179.730225	5.961498	3.081722
D:	731.86	-1821	-25	-16355	76	33	11	2520	139	-5147	-179.917725	6.353444	2.732749
D:	736.78	-1692	29	-16333	15	47	175	2523	139	-5147	179.903564	5.914565	2.788940
D:	741.96	-1664	-27	-16519	10	123	65	2523	139	-5147	-179.911652	6.318512	2.338062
D:	746.93	-1726	4	-16581	-21	98	130	2523	139	-5147	179.991486	5.942979	2.592684
D:	751.94	-1848	-61	-16277	-25	150	96	2523	139	-5147	-179.790588	6.477454	2.165033
D:	756.65	-1771	-75	-16362	9	87	90	2512	97	-5114	-179.742676	6.177683	2.391040
D:	761.83	-1634	-92	-16683	3	124	74	2512	97	-5114	-179.689346	5.919308	2.176295
D:	765.56	-1680	-57	-16204	3	96	80	2512	97	-5114	-179.803757	5.919308	2.537679
D:	769.44	-1690	-119	-16545	33	102	133	2512	97	-5114	-179.593216	6.206293	2.145653
D:	773.10	-1803	-56	-16580	-83	102	133	2512	97	-5114	-179.811783	6.206417	2.240729
D:	776.77	-1805	26	-16477	18	124	54	2513	127	-5011	179.914886	6.251809	2.240729
D:	780.34	-1872	-182	-16242	58	28	86	2513	127	-5011	-179.363297	6.574499	3.414019
D:	783.92	-1814	75	-16253	-12	82	65	2513	127	-5011	179.740906	6.368556	1.948503
D:	787.50	-1828	-35	-16469	-8	159	20	2513	127	-5011	-179.883530	6.333873	2.583757
D:	791.34	-1656	32	-16456	123	45	120	2513	127	-5011	179.893890	5.746601	2.236746
D:	794.98	-1656	32	-16456	39	51	3	2520	96	-5006	179.893890	6.535985	1.702617
D:	798.56	-1852	15	-16165	-17	106	71	2520	96	-5006	179.952133	5.882495	2.172873
D:	802.43	-1694	-61	-16442	39	107	56	2520	96	-5006	-179.792740	5.845378	2.168735
D:	806.10	-1686	-60	-16469	45	66	106	2520	96	-5006	-179.796570	6.602931	1.622533
D:	809.73	-1912	29	-16518	-211	142	94	2520	96	-5006	179.904709	6.093610	2.278027
D:	813.55	-1766	-82	-16543	-3	64	192	2520	96	-5006	-179.721313	6.495196	2.191551
D:	817.58	-1854	-35	-16285	52	195	58	2517	107	-5185	-179.882156	6.495170	2.145513
D:	821.28	-1628	-19	-16418	-21	195	58	2517	107	-5185	-179.939011	5.663070	2.333448
D:	824.88	-1858	-59	-16586	9	177	107	2517	107	-5185	-179.801483	6.391899	2.331785
D:	828.46	-1850	86	-16448	73	122	22	2517	107	-5185	179.705719	6.417513	1.485440
D:	832.34	-1706	-11	-16622	45	124	82	2517	107	-5185	-179.967392	5.860209	2.033508
D:	837.23	-1861	-35	-16430	3	22	91	2511	98	-5045	-179.883270	6.360228	2.153892
D:	842.40	-1833	-55	-16445	110	130	63	2511	98	-5045	-179.813690	6.432764	2.195194
D:	846.85	-1856	-63	-16462	49	117	10	2511	98	-5045	-179.786026	6.775501	1.359185
D:	851.42	-1682	-103	-16700	115	65	172	2511	98	-5045	-179.651932	5.751414	2.650126
D:	856.26	-1860	-17	-16418	42	160	175	2531	109	-4941	-179.945984	6.463684	2.141584
D:	860.83	-1769	21	-16222	103	65	130	2531	109	-4941	179.931137	6.223660	2.274216
D:	865.29	-1885	-44	-16406	77	230	210	2531	109	-4941	-179.851654	6.554541	2.218240
D:	868.93	-1914	-35	-16423	23	230	210	2531	109	-4941	-179.883209	6.647665	2.264866
D:	872.69	-1698	-19	-16540	228	124	50	2531	109	-4941	-179.939484	5.861632	1.767979
D:	876.52	-1769	-17	-16570	41	42	8	2516	88	-5066	-179.946518	6.093947	1.756287
D:	880.10	-1838	56	-16258	50	96	30	2516	88	-5066	179.807953	6.450171	1.316843
D:	883.63	-1858	-65	-16514	47	126	82	2516	88	-5066	-179.779785	6.419527	2.015948
D:	887.20	-1858	-65	-16514	92	148	101	2516	88	-5066	-179.779785	6.325840	1.446221
D:	890.85	-1824	35	-16454	11	92	95	2516	88	-5066	179.883438	6.273357	1.690982
D:	894.42	-1795	-7	-16329	62	77	50	2516	88	-5143	-179.980759	5.860499	1.617628
D:	897.95	-1695	8	-16514	103	230	25	2516	88	-5143	179.977554	6.944595	2.131210
D:	901.93	-1998	19	-16404	85	128	68	2515	122	-5143	179.938950	6.875141	2.313429
D:	906.17	-1990	-12	-16505	16	84	124	2515	122	-5143	-179.963638	6.334588	2.506870
D:	910.46	-1814	-39	-16341	104	150	86	2515	122	-5143	-179.868561	6.433865	0.855089
D:	914.86	-1837	241	-16289	85	121	136	2515	122	-5143	179.157639	5.657123	2.564095
D:	919.59	-1868	-89	-16349	106	63	104	2500	103	-5041	-179.693405	6.518317	2.444154
D:	924.70	-1660	-92	-16583	172	60	131	2500	103	-5041	-179.687439	5.716490	2.580236
D:	928.81	-1739	-108	-16736	86	162	79	2500	103	-5041	-179.635574	5.932240	2.580236
D:	932.39	-1841	-79	-16534	64	151	64	2500	103	-5041	-179.731552	6.353619	2.391976
D:	935.94	-1655	-38	-16526	64	104	92	2500	103	-5041	-179.873550	5.718985	2.298771
D:	939.51	-1830	43	-16619	25	139	27	2522	109	-4862	-179.873550	6.283970	1.817264
D:	943.10	-1830	43	-16619	-20	59	21	2522	109	-4862	179.857056	6.525734	1.929755
D:	946.71	-1866	20	-16313	-51	86	110	2522	109	-4862	179.935059	6.379430	1.926738
D:	950.80	-1836	22	-16422	48	86	71	2522	109	-4862	179.928558	5.592331	1.860217
D:	955.18	-1828	-11	-16768	83	211	187	2522	109	-4862	-179.967712	6.221836	1.489164
D:	960.22	-1777	59	-16329	-7	143	135	2511	76	-5140	179.798279	6.210904	1.673879
D:	965.59	-1672	-39	-16472	219	76	116	2511	76	-5140	-179.869644	6.403446	1.371887
D:	970.43	-1835	8	-16351	12	169	16	2511	76	-5140	179.977280	5.931031	1.455212
D:	974.99	-1709	24	-16280	95	128	65	2511	76	-5140	179.920837	6.152956	2.260065
D:	979.72	-1833	232	-16319	82	215	35	2527	128	-5057	179.190781	6.408322	1.044973
D:	983.47	-1827	-19	-16529	111	173	31	2527	128	-5057	179.190781	6.307652	2.498087
D:	987.03	-1827	-19	-16529	50	96	84	2527	128	-5057	-179.939453	6.500925	2.502786
D:	990.73	-1874	-22	-16446	100	150	124	2527	128	-5057	-179.928665	6.251253	2.903825
D:	994.31	-1803	-89	-16460	81	160	30	2527	128	-5057	-179.695511	5.841009	2.580574
D:	997.91	-1706	-28	-16677	131	217	97	2527	128	-5057	-179.909119	6.317830	2.056973
D:	1001.49	-1828	-81	-16511	131	70	149	2516	85	-5047	-179.724213	5.825932	2.151021
D:	1005.10	-1677	-92	-16436	64	70	149	2516	85	-5047	-179.684586	5.825930	2.151021
D:	1008.62	-1750	-43	-16531	100	58	116	2516	85	-5047	-179.856277	6.043080	1.852922
D:	1012.19	-1734	-8	-16349	69	150	86	2516	85	-5047	-179.977264	6.054422	1.651276
D:	1015.99	-1594	-67	-16570	48	194	99	2516	85	-5047	-179.773621	5.494946	2.352414
D:	1020.40	-1752	54	-16233	47	199	74	2533	103	-5227	179.814697	6.160139	1.589284
D:	1024.79	-1803	10	-16504	102	192	129	2533	103	-5227	179.970596	6.234807	1.403455
D:	1029.52	-1918	84	-16516	188	151	173	2533	103	-5227	179.713898	6.254413	1.383873
D:	1034.77	-1774	88	-16187	42	126	29	2533	103	-5227	179.693817	6.426605	2.152318
D:	1039.65	-1856	74	-16277	26	86	13	2510	124	-5036	179.744812	6.505234	1.889708
D:	1043.86	-1715	-81	-16553	-12	149	80	2510	124	-5036	-179.724945	5.915220	2.821992
D:	1047.43	-1658	82	-16644	27	202	181	2510	124	-5036	-179.724945	5.688878	1.895692
D:	1050.96	-1658	82	-16644	127	184	128	2510	124	-5036	179.723038	5.429862	2.511446
D:	1054.59	-1548	-21	-16286	58	122	215	2510	124	-5036	-179.931427	6.082209	2.321074
D:	1058.34	-1771	4	-16621	106	164	71	2510	124	-5235	179.991516	6.529615	2.683605
D:	1061.98	-1874	-65	-16373	37	174	36	2510	124	-5235	-179.777847	6.368962	2.397302
D:	1065.61	-1817	-15	-16279	37	191	54	2512	124	-5235	-179.952499	6.464735	2.272216
D:	1069.39	-1879	5	-16583	116	186	74	2512	124	-5235	179.988037	6.464735	2.346390
D:	1073.12	-1893	-9	-16376	168	186	74	2512	124	-5235	-179.973816	6.594090	2.402148
D:	1076.90	-1778	-14	-16364	112	267	117	2512	124	-5235	-179.956284	6.201222	2.408573
D:	1080.50	-1756	247	-16415	115	204	71	2512	124	-5235	179.143204	6.105508	0.321490
D:	1084.47	-2065	62	-16164	126	101	44	2506	92	-4987	179.785538	7.280436	2.021456
D:	1088.84	-1810	-50	-16507	144	189	69	2506	92	-4987	-179.831757	6.257666	1.307119
D:	1093.27	-1961	73	-16632	130	106	114	2506	92	-4987	179.753815	6.173989	1.872605
D:	1098.12	-1775	-23	-16409	163	96	68	2506	92	-4987	-179.925003	6.103179	1.972418
D:	1103.24	-1812	3	-16278	148	58	76	2521	96	-5058	-179.866638	6.351968	1.776586
D:	1106.98	-1812	3	-16278	127	157	96	2521	96	-5058	179.994751	6.287068	1.974696
D:	1110.59	-1820	-31	-16520	222	60	78	2521	96	-5058	-179.897797	6.200449	2.056346
D:	1114.19	-1778	-44	-16366	139	63	107	2521	96	-5058	-179.851257	6.284570	1.739754
D:	1117.75	-1812	10	-16454	168	174	145	2521	96	-5058	179.970505	5.338374	2.155678
D:	1121.38	-1547	-53	-16556	168	148	137	2521	96	-5058	-179.821884	5.338374	1.292398
D:	1124.96	-1880	104	-16323	181	148	137	2517	102	-5092	179.640244	6.570148	1.292398
D:	1128.56	-1829	48	-16283	200	127	146	2517	102	-5092	179.836395	6.409089	1.623257
D:	1132.25	-1795	-86	-16410	215	50	64	2517	102	-5092	-179.705048	6.242553	2.411533
D:	1135.89	-1921	76	-16401	221	174	113	2517	102	-5092	179.739807	6.680571	1.452428
D:	1139.74	-1621	-73	-16616	217	108	225	2517	102	-5092	-179.753601	5.572059	2.428197
D:	1143.47	-1901	-19	-16353	206	68	144	2522	105	-5206	-179.938736	6.630937	2.047523
D:	1146.99	-1901	-19	-16353	18	99	171	2522	105	-5206	-179.938736	6.138104	2.015930
D:	1150.56	-1766	-9	-16422	168	98	111	2522	105	-5206	-179.973923	5.872265	2.188311
D:	1154.10	-1719	-36	-16714	206	23	135	2522	105	-5206	-179.881897	6.524863	2.030491
D:	1157.72	-1859	-15	-16254	206	10	141	2522	105	-5206	-179.952423	5.984656	1.870720
D:	1161.29	-1734	17	-16541	132	10	141	2522	105	-5206	179.946426	5.984656	2.191950
D:	1164.89	-1728	-50	-16576	164	123	190	2502	100	-4994	-179.832474	5.951571	2.343600
D:	1169.77	-1905	-83	-16319	106	87	190	2502	100	-4994	-179.713882	6.013761	2.281230
D:	1174.96	-1824	-87	-16353	142	110	132	2502	100	-4994	-179.700485	6.364515	2.384051
D:	1179.71	-1699	-57	-16492	261	66	152	2502	100	-4994	-179.807281	5.881980	2.465836
D:	1184.33	-1805	-33	-16501	183	29	175	2500	112	-5135	-179.890717	6.242784	1.884484
D:	1189.32	-1804	38	-16475	180	134	109	2500	112	-5135	179.873138	6.021850	2.378023
D:	1194.44	-1711	-43	-16220	152	100	101	2500	112	-5135	-179.853409	6.691279	1.657433
D:	1198.67	-1899	72	-16187	53	104	140	2500	112	-5135	179.750443	6.028018	2.611477
D:	1202.21	-1732	-83	-16402	53	140	123	2500	112	-5135	-179.715363	6.323599	2.243509
D:	1205.95	-1828	-21	-16496	214	146	81	2512	113	-4994	-179.932358	6.459445	1.900088
D:	1209.70	-1859	38	-16420	214	215	87	2512	113	-4994	179.872711	5.874439	2.212226
D:	1213.39	-1729	-11	-16805	207	116	124	2512	113	-4994	-179.967804	5.874439	2.536925
D:	1216.95	-1812	-72	-16278	173	116	124	2512	113	-4994	-179.751892	6.351907	2.536925
D:	1220.61	-1958	15	-16498	218	102	180	2512	113	-4994	179.953201	6.768462	2.014836
D:	1224.32	-1907	-41	-16483	193	182	228	2512	113	-4994	-179.862793	6.599667	2.379104
D:	1228.11	-1684	-8	-16395	143	84	169	2509	115	-5007	-179.977356	5.864699	2.236364
D:	1231.82	-1667	-79	-16577	192	161	162	2509	115	-5007	-179.732239	5.742522	2.652584
D:	1236.44	-1901	-47	-16514	170	178	162	2509	115	-5007	-179.842224	6.566836	2.911220
D:	1241.72	-1526	-118	-16888	211	-1	246	2509	115	-5007	-179.604965	6.379825	2.382694
D:	1246.68	-1835	-39	-16412	241	0	139	2510	111	-5029	-179.467682	6.694655	2.941028
D:	1251.68	-1630	-125	-16776	52	40	144	2510	111	-5029	-179.578384	5.549598	2.848012
D:	1256.24	-1956	-103	-16269	244	81	232	2510	111	-5029	-179.642563	6.855754	2.644772
D:	1260.33	-1667	-58	-16498	262	58	195	2510	111	-5029	-179.803879	5.769864	2.453869
D:	1263.97	-1797	68	-16266	165	116	132	2510	111	-5029	179.765778	6.304366	1.546383
D:	1267.55	-1888	-37	-16474	71	128	120	2516	104	-5107	-179.876617	6.538026	2.146339
D:	1271.09	-1888	-37	-16474	106	118	143	2516	104	-5107	-179.876617	6.608731	2.385830
D:	1274.64	-1899	-79	-16391	108	43	228	2516	104	-5107	-179.729156	6.164915	2.422409
D:	1278.35	-1786	-81	-16535	73	136	102	2516	104	-5107	-179.724625	5.848896	2.289982
D:	1282.17	-1703	-55	-16625	66	71	183	2516	104	-5107	-179.815750	6.488568	2.091682
D:	1285.80	-1872	-27	-16460	92	79	225	2516	104	-5107	-179.911316	5.794756	2.846083
D:	1289.30	-1698	-87	-16732	92	79	225	2506	123	-5222	-179.707397	5.794756	2.594472
D:	1293.12	-1847	-51	-16551	40	63	120	2506	123	-5222	-179.828751	6.367705	2.225562
D:	1296.84	-1933	8	-16414	26	134	176	2506	123	-5222	179.977371	6.716718	2.225562
D:	1300.42	-1944	-84	-16486	60	144	112	2506	123	-5222	-179.713379	6.725273	2.762839
D:	1304.00	-1888	-4	-16308	34	32	57	2506	123	-5222	-179.991241	6.604008	2.355015
D:	1307.64	-1784	-27	-16587	38	84	140	2511	125	-5000	-179.912033	6.138971	2.514999
D:	1311.44	-1792	-31	-16576	162	86	199	2511	125	-5000	-179.898163	6.170346	2.535699
D:	1315.11	-1792	-31	-16576	151	165	173	2511	125	-5000	-179.842560	5.896841	2.646730
D:	1319.75	-1788	-17	-16581	164	128	115	2511	125	-5000	-179.946564	6.154845	2.457105
D:	1324.32	-1821	30	-16331	41	21	122	2511	125	-5000	179.900055	6.362702	1.930348
D:	1328.74	-1725	-35	-16310	190	77	136	2508	112	-5192	-179.882355	6.037513	2.351530
D:	1333.43	-1884	-46	-16571	191	112	208	2508	112	-5192	-179.846268	6.347618	2.499735
D:	1338.49	-1822	-69	-16379	210	121	198	2508	112	-5192	-179.763931	5.822033	2.845225
D:	1342.64	-1692	-122	-16594	155	85	132	2508	112	-5192	-179.584061	6.654380	2.255277
D:	1346.48	-1917	-31	-16432	196	140	182	2519	91	-5184	-179.897217	6.285120	2.401194
D:	1350.09	-1798	-119	-16325	116	125	151	2519	91	-5184	-179.587662	6.819080	1.655323
D:	1353.83	-1990	3	-16642	185	87	170	2519	91	-5184	179.994980	6.609893	1.839978
D:	1357.37	-1897	-27	-16371	185	147	154	2519	91	-5184	-179.910812	6.609893	1.724227
D:	1360.90	-1713	-2	-16394	53	147	154	2519	91	-5184	-179.998322	5.965333	1.724227
D:	1364.48	-1735	-68	-16286	122	132	196	2519	91	-5184	-179.766068	6.081094	2.772050
D:	1368.19	-1807	14	-16224	133	169	165	2515	126	-5155	179.955872	6.355493	2.267274
D:	1371.86	-1553	-96	-16579	105	190	161	2515	126	-5155	-179.673538	5.351504	2.989061
D:	1375.45	-1865	-77	-16365	76	115	146	2515	126	-5155	-179.735718	6.501654	2.790747
D:	1379.26	-1804	-182	-16438	79	95	150	2515	126	-5155	-179.735718	6.262707	3.421350
D:	1383.03	-1804	-182	-16438	127	59	217	2515	126	-5155	-179.370941	6.566513	2.876925
D:	1386.79	-1871	-92	-16254	57	118	265	2515	126	-5155	-179.681015	6.434797	2.251827
D:	1390.43	-1855	16	-16448	68	95	174	2517	115	-5038	179.949570	6.389378	2.945005
D:	1393.99	-1831	-138	-16351	-47	158	183	2517	115	-5038	-179.521729	6.313821	2.455121
D:	1397.57	-1810	-52	-16359	-47	72	146	2517	115	-5038	-179.823166	6.313821	1.301310
D:	1401.26	-1870	148	-16469	29	104	172	2517	115	-5038	179.490417	6.477931	3.103040
D:	1405.08	-1738	-162	-16618	-80	104	172	2517	115	-5038	-179.446762	5.970490	1.870183
D:	1408.81	-1826	47	-16053	-89	94	194	2517	115	-5038	179.837570	6.489564	2.106751
D:	1412.53	-1729	-73	-16786	-14	73	213	2507	125	-4967	-179.756119	5.880988	2.795230
D:	1416.80	-1788	4	-16434	25	132	114	2507	125	-4967	179.991364	5.976515	2.215968
D:	1422.01	-1711	28	-16344	12	100	117	2507	125	-4967	179.907135	6.852057	2.786216
D:	1426.55	-1984	-83	-16511	-4	128	144	2507	125	-4967	-179.680878	6.537009	2.868467
D:	1431.61	-1824	-109	-16411	-18	155	170	2516	90	-5054	-179.624741	6.342157	2.313368
D:	1436.19	-1876	-38	-16704	-100	145	163	2516	90	-5054	-179.874969	6.408120	1.878435
D:	1440.45	-1943	-79	-16349	-50	139	156	2516	90	-5054	-179.728439	6.777659	2.117434
D:	1444.00	-1800	-31	-16602	-67	122	250	2516	90	-5054	-179.898315	6.188048	1.869759
D:	1447.67	-1918	14	-16578	-66	98	133	2516	90	-5054	179.956940	6.599715	1.594378
D:	1451.19	-1918	14	-16578	-20	-10	192	2504	123	-4899	179.956940	6.721181	2.542332
D:	1454.71	-1929	-43	-16369	-38	72	170	2504	123	-4899	-179.854797	5.735499	2.945850
D:	1458.39	-1651	-102	-16438	-20	85	175	2504	123	-4899	-179.649765	6.533065	2.341126
D:	1461.96	-1883	-5	-16443	23	130	91	2504	123	-4899	-179.987885	6.240098	2.365083
D:	1465.56	-1790	-6	-16371	23	55	167	2504	123	-4899	-179.984314	6.240098	2.853667
D:	1469.25	-1803	-93	-16582	-55	55	167	2504	123	-4899	-179.683960	6.205612	1.825282
D:	1472.92	-1976	-5	-16375	-146	143	299	2501	97	-5089	-179.987808	6.880916	1.583027
D:	1476.74	-1856	40	-16343	-128	-17	233	2501	97	-5089	179.865082	6.479234	1.583027
D:	1480.30	-1758	183	-16595	-105	149	190	2501	97	-5089	179.373489	6.046918	0.774702
D:	1483.87	-1889	32	-16431	-125	24	199	2501	97	-5089	179.893723	6.558433	1.627139
D:	1487.45	-1842	36	-16762	-85	97	246	2501	97	-5089	179.893723	6.271322	1.620755
D:	1491.15	-1842	19	-16285	-167	75	223	2510	101	-5170	179.882248	6.776367	1.753339
D:	1495.03	-1935	19	-16285	-180	66	112	2510	101	-5170	179.938461	6.774338	1.782460
D:	1498.72	-1928	14	-16231	-135	84	176	2510	101	-5170	179.955887	6.398447	2.232236
D:	1503.38	-1788	-4	-16469	-146	119	181	2510	101	-5170	-179.991409	6.196380	1.918155
D:	1508.27	-1733	-7	-16481	-46	75	164	2510	101	-5170	-179.980972	6.002849	1.860052
D:	1512.88	-1787	-5	-16547	-81	107	168	2496	96	-5012	-179.987991	6.163974	1.739222
D:	1517.42	-1818	13	-16456	-87	90	271	2496	96	-5012	179.960052	5.690199	2.051600
D:	1521.64	-1623	-35	-16289	-32	65	98	2496	96	-5012	-179.882202	6.789323	1.193298
D:	1525.22	-1956	105	-16430	-159	65	98	2496	96	-5012	179.639145	6.789201	1.587697
D:	1528.83	-1873	38	-16470	-110	103	171	2496	96	-5012	179.873108	6.488088	1.989249
D:	1532.45	-1734	20	-16480	-160	117	209	2496	117	-5181	179.935760	6.006645	2.088918
D:	1535.99	-1881	28	-16333	-88	106	93	2507	117	-5181	179.907089	6.569746	2.008335
D:	1539.56	-1772	117	-16567	-65	33	192	2507	117	-5181	179.600677	6.105152	1.513257
D:	1543.45	-1740	-9	-16591	37	82	279	2507	117	-5181	-179.974228	5.987250	2.261680
D:	1547.24	-1876	0	-16518	28	56	144	2507	117	-5181	-179.974228	6.479684	2.178596
D:	1550.89	-1876	0	-16518	-17	99	98	2507	117	-5181	180.005310	6.787539	2.350318
D:	1554.42	-1975	-33	-16594	-30	67	192	2507	74	-5183	-179.891357	6.465457	1.205183
D:	1557.97	-1891	30	-16687	16	8	145	2507	74	-5183	179.902298	6.118268	1.315001
D:	1561.69	-1761	13	-16429	16	1	225	2507	74	-5183	179.959961	5.908311	1.548083
D:	1565.48	-1717	-25	-16592	90	22	143	2507	74	-5183	-179.918976	6.540020	0.646138
D:	1569.05	-1877	124	-16373	124	22	143	2507	74	-5183	179.571381	6.539843	0.653828
D:	1572.69	-1781	-40	-16627	20	7	135	2507	74	-5183	-179.867462	6.114085	2.144310
D:	1576.42	-1700	-9	-16671	77	19	153	2515	101	-5257	-179.974365	5.822695	1.959379
D:	1580.04	-1928	58	-16386	20	28	184	2515	101	-5257	179.802505	6.710804	1.516582
D:	1583.65	-1825	100	-16596	-51	-27	198	2515	101	-5257	179.660065	6.275461	1.291655
D:	1587.19	-1825	100	-16596	34	54	127	2515	101	-5257	179.660065	6.166534	1.406184
D:	1590.73	-1764	80	-16327	-78	7	138	2515	101	-5257	179.724548	5.885870	1.524090
D:	1594.30	-1699	63	-16481	-125	-48	138	2512	82	-5126	179.786301	6.604341	1.688443
D:	1598.20	-1927	-29	-16644	-183	62	243	2512	82	-5126	-179.905487	6.914110	0.560489
D:	1602.13	-1989	165	-16402	-113	-3	213	2512	82	-5126	179.428925	6.405725	1.629219
D:	1605.82	-1858	-17	-16550	-129	5	88	2512	82	-5126	-179.946442	7.076825	1.158352
D:	1609.45	-2028	60	-16336	-129	64	144	2512	82	-5126	179.794861	7.076825	1.351524
D:	1613.10	-1891	30	-16476	-174	64	144	2512	82	-5126	179.900986	6.547542	2.106007
D:	1616.75	-1830	46	-16711	-99	-36	231	2509	125	-4927	179.847595	6.249646	2.106007
D:	1620.40	-1901	118	-16183	-37	67	98	2509	125	-4927	179.587524	6.699792	1.663698
D:	1624.23	-1936	123	-16439	-81	35	136	2509	125	-4927	179.576614	6.716724	1.645444
D:	1627.82	-1906	177	-16674	-69	60	90	2509	125	-4927	179.397095	6.520986	1.364289
D:	1631.55	-1885	-6	-16463	-11	124	123	2509	125	-4927	-179.984421	6.532066	2.378140
D:	1635.24	-1885	111	-16504	31	77	234	2509	74	-5036	-179.984421	6.776145	0.745104
D:	1639.00	-1961	111	-16504	172	133	94	2509	74	-5036	179.619965	6.845186	1.158605
D:	1642.84	-1948	37	-16228	96	127	118	2509	74	-5036	179.874680	6.076763	1.308393
D:	1646.62	-1771	16	-16636	172	22	181	2509	74	-5036	179.950211	6.025465	1.287489
D:	1650.36	-1759	20	-16665	158	123	129	2509	74	-5036	179.936539	6.524721	1.204886
D:	1653.80	-1872	31	-16368	230	132	199	2509	74	-5036	179.896790	6.214045	2.009058
D:	1657.29	-1810	-50	-16624	230	132	199	2521	92	-5182	-179.832962	6.213971	1.566076
D:	1660.98	-1927	23	-16584	109	103	136	2521	92	-5182	179.925858	6.628026	1.210516
D:	1664.86	-1850	86	-16564	96	58	86	2521	92	-5182	179.707825	6.372942	1.660965
D:	1669.68	-1767	10	-16343	87	34	80	2521	92	-5182	179.970245	6.567661	1.516150
D:	1674.89	-1904	32	-16538	66	83	184	2518	69	-5064	179.861450	6.358780	1.052629
D:	1679.75	-1780	91	-16518	5	18	194	2518	69	-5064	179.689651	6.150619	0.773074
D:	1684.97	-1888	57	-16455	17	32	135	2518	69	-5064	179.806824	5.689096	0.831606
D:	1689.95	-1672	84	-16784	-94	146	178	2518	69	-5064	179.718552	6.737743	1.111860
D:	1694.43	-1941	29	-16430	-86	104	138	2518	69	-5129	179.904175	6.104865	0.819943
D:	1698.32	-1752	81	-16381	-13	3	156	2521	106	-5129	179.721985	6.876065	1.403054
D:	1702.18	-2002	96	-16602	-103	-90	177	2521	106	-5129	179.673996	6.526813	1.472775
D:	1706.12	-1874	85	-16380	-22	1	251	2521	106	-5129	179.707977	6.743996	1.525877
D:	1709.86	-1929	74	-16313	30	73	225	2521	106	-5129	179.745392	6.685320	1.258973
D:	1713.43	-1906	120	-16261	30	38	180	2521	106	-5129	179.582489	6.685320	1.145845
D:	1717.53	-1648	146	-16427	97	106	151	2521	106	-5129	179.496063	6.584014	0.836232
D:	1721.93	-1907	139	-16522	125	98	237	2515	88	-5109	179.523285	6.413020	1.108140
D:	1726.44	-1846	92	-16424	185	188	297	2515	88	-5109	179.684357	5.897518	1.341904
D:	1731.74	-1956	86	-16369	215	115	229	2515	88	-5109	179.704285	6.814309	1.145938
D:	1736.93	-1799	88	-16388	292	135	153	2515	88	-5109	179.697647	6.100218	1.516792
D:	1742.05	-1778	44	-16637	384	96	200	2520	95	-5249	179.853775	6.497139	1.157215
D:	1746.18	-1862	101	-16350	367	141	97	2520	95	-5249	179.651367	6.492783	1.574070
D:	1749.83	-1873	31	-16458	319	229	139	2520	95	-5249	179.897385	6.667874	1.334824
D:	1753.42	-1911	70	-16347	319	244	110	2520	95	-5249	179.759949	6.667874	0.740208
D:	1756.94	-1846	173	-16482	251	244	110	2520	95	-5249	179.403915	6.390389	0.358594
D:	1760.47	-1686	6	-16657	362	180	143	2523	72	-5059	179.984680	5.779890	1.331383
D:	1763.97	-1830	102	-16356	175	143	104	2523	72	-5059	179.647980	6.384084	0.754921
D:	1767.51	-1794	59	-16439	237	122	119	2523	72	-5059	179.799667	6.228228	1.009079
D:	1771.09	-1794	59	-16439	221	171	103	2523	72	-5059	179.799667	6.164239	1.093836
D:	1774.63	-1790	45	-16574	99	134	154	2523	72	-5059	179.849747	6.387958	0.899358
D:	1778.21	-1832	77	-16364	198	90	175	2523	72	-5059	179.735703	5.565714	1.718067
D:	1781.73	-1636	73	-16789	126	71	185	2511	111	-4966	179.756180	6.539909	1.702320
D:	1786.17	-1874	66	-16347	71	98	153	2511	111	-4966	179.773972	6.485674	2.001572
D:	1790.42	-1879	14	-16529	40	30	164	2511	111	-4966	179.956787	6.080580	1.314550
D:	1794.65	-1779	140	-16700	62	103	125	2511	111	-4966	179.524979	6.532972	1.645802
D:	1799.02	-1872	76	-16347	7	63	178	2512	82	-5067	179.738922	6.103817	1.329880
D:	1803.36	-1913	58	-16474	38	76	67	2512	82	-5067	179.803589	6.623811	1.193516
D:	1807.63	-1793	63	-16454	-47	81	95	2512	82	-5067	179.785919	6.219147	1.177297
D:	1811.19	-1793	63	-16454	-9	75	112	2512	82	-5067	179.785919	6.218512	1.168481
D:	1814.89	-1806	65	-16575	-1	25	160	2512	82	-5067	179.780609	6.795407	0.890625
D:	1818.96	-1959	110	-16440	29	113	131	2519	69	-4926	179.621933	7.093477	1.128287
D:	1822.63	-2046	26	-16442	125	149	132	2519	69	-4926	179.914703	6.447346	0.601537
D:	1826.19	-1870	124	-16548	99	193	155	2519	69	-4926	179.575958	6.708824	1.389838
D:	1829.90	-1946	-19	-16544	244	195	157	2519	69	-4926	-179.939514	6.296624	1.203231
D:	1833.70	-1824	17	-16531	500	143	220	2519	69	-4926	179.946381	6.724679	0.689116
D:	1837.51	-1962	108	-16640	262	278	192	2519	69	-4926	179.633423	6.411064	1.184794
D:	1841.23	-1836	101	-16340	222	278	192	2520	95	-5089	179.651154	6.411063	1.063592
D:	1844.93	-1776	124	-16456	263	130	175	2520	95	-5089	179.573578	6.159766	1.648615
D:	1848.97	-1904	19	-16273	329	162	143	2520	95	-5089	179.938400	5.529750	1.883225
D:	1854.07	-1645	-12	-16992	180	217	150	2520	95	-5089	-179.964844	6.481607	1.239988
D:	1859.28	-1848	9	-16361	265	188	84	2520	95	-5089	179.973785	6.444521	1.858625
D:	1863.87	-1729	-9	-16619	214	113	161	2510	102	-5025	-179.974274	5.939719	1.988353
D:	1868.97	-1840	54	-16522	162	179	71	2510	102	-5025	179.818039	6.182774	1.675036
D:	1874.35	-1773	43	-16367	66	119	52	2510	102	-5025	179.854782	6.458683	1.487025
D:	1878.92	-1864	74	-16466	67	266	52	2510	102	-5025	179.747803	6.055215	1.232396
D:	1882.63	-1719	119	-16205	57	127	-38	2510	93	-5125	179.584564	6.234953	1.722216
D:	1886.26	-1799	4	-16467	67	133	222	2510	93	-5125	179.991409	6.867139	1.544375
D:	1890.03	-1992	30	-16541	78	127	53	2510	93	-5125	179.901398	6.522114	0.756425
D:	1893.79	-1879	168	-16435	26	30	-48	2510	93	-5125	179.419632	6.471869	1.061545
D:	1897.43	-1869	116	-16476	26	-225	38	2510	93	-5125	179.601913	6.471869	1.241790
D:	1901.04	-1874	84	-16365	51	-225	38	2510	93	-5125	179.711197	6.532745	0.897594
D:	1904.64	-1830	-25	-16381	142	-75	74	2514	74	-5072	-179.917862	6.374537	1.529433
D:	1908.18	-1822	42	-16277	98	-2	-9	2514	74	-5072	179.857468	6.387103	1.139433
D:	1911.71	-1921	-31	-16433	61	6	161	2514	74	-5072	-179.897217	6.667738	1.551286
D:	1915.42	-1866	69	-16429	14	87	19	2514	74	-5072	179.764664	6.480000	0.983318
D:	1920.51	-2030	56	-16538	66	58	88	2514	74	-5072	179.811295	6.998081	1.830274
D:	1925.21	-1839	18	-16333	128	119	67	2511	104	-5188	179.942154	5.972387	1.692053
D:	1930.05	-1748	46	-16709	139	148	56	2511	104	-5188	179.847580	6.571228	1.259454
D:	1934.65	-1887	114	-16381	208	101	15	2511	104	-5188	179.606567	6.344870	1.538729
D:	1938.70	-1846	69	-16602	254	86	86	2511	104	-5188	179.767181	6.561549	1.783478
D:	1942.30	-1896	25	-16484	204	197	117	2510	96	-5057	179.918411	6.417665	1.808970
D:	1945.81	-1821	-2	-16190	261	148	112	2510	96	-5057	-179.998230	5.967373	0.360300
D:	1949.62	-1744	254	-16683	5	152	80	2510	96	-5057	179.133026	6.463044	1.290124
D:	1954.36	-1845	87	-16287	165	226	95	2510	96	-5057	179.699234	6.332582	1.121818
D:	1959.17	-1866	49	-16491	191	158	139	2510	96	-5057	179.835068	6.455872	1.358350
D:	1963.76	-1952	156	-16274	263	124	135	2500	87	-4984	179.456085	6.839610	0.730612
D:	1968.43	-1719	48	-16494	206	150	107	2500	87	-4984	179.838577	5.950020	1.514060
D:	1973.04	-1770	24	-16500	239	171	204	2500	87	-4984	179.921967	6.123034	1.945639
D:	1977.41	-1856	-54	-16570	346	166	145	2500	87	-4984	-179.818588	5.545909	1.514403
D:	1981.23	-1597	28	-16448	294	166	145	2500	87	-4984	179.907776	5.545841	0.576853
D:	1985.23	-1844	120	-16243	230	91	202	2506	69	-5154	179.582016	6.476837	1.256705
D:	1988.89	-1638	10	-16496	167	149	128	2506	69	-5154	179.970581	5.670865	1.251265
D:	1992.46	-1697	-3	-16637	209	34	109	2506	69	-5154	-179.994980	5.824288	1.328247
D:	1996.11	-1842	3	-16553	249	25	101	2506	69	-5154	179.994919	6.349876	1.274023
D:	1999.72	-1733	24	-16600	182	59	56	2506	69	-5154	179.922470	5.960122	1.956972
D:	2003.53	-1916	18	-16368	123	104	-5	2520	111	-5079	179.942291	6.676719	1.951764
D:	2007.28	-1738	68	-16561	85	-47	-18	2520	111	-5079	179.942291	5.991123	1.700564
D:	2010.85	-1738	68	-16561	70	-27	83	2520	111	-5079	179.770050	5.808468	2.215144
D:	2014.43	-1677	-19	-16486	178	-24	20	2520	111	-5079	-179.939270	6.314853	1.488497
D:	2018.56	-1808	101	-16338	53	-56	-40	2520	111	-5079	179.651108	6.880232	2.083205
D:	2022.90	-2012	-7	-16675	242	-102	-3	2520	111	-5079	-179.981262	6.371753	1.673511
D:	2027.55	-1882	29	-16330	200	-71	27	2530	78	-4969	179.903549	6.574404	1.285709
D:	2032.62	-1820	12	-16534	307	-67	21	2530	78	-4969	179.963730	6.281796	1.005296
D:	2036.90	-1885	80	-16548	157	-44	133	2530	78	-4969	179.728317	6.498727	1.660543
D:	2040.95	-1837	-36	-16456	257	-77	137	2530	78	-4969	-179.879959	6.369788	1.673351
D:	2044.79	-1755	11	-16473	350	58	17	2530	78	-4969	179.967056	6.081416	1.537578
D:	2048.49	-1894	109	-16250	321	51	157	2527	116	-4954	179.620972	6.648096	1.537578
D:	2052.02	-1852	-25	-16410	433	67	132	2527	116	-4954	-179.918015	6.439224	2.307139
D:	2055.81	-1854	-1	-16661	507	87	144	2527	116	-4954	-180.001877	6.349815	2.177015
D:	2059.50	-1851	3	-16243	502	70	111	2527	116	-4954	179.994720	6.501389	2.145742
D:	2063.28	-1718	34	-16627	473	179	186	2527	116	-4954	179.994720	5.899366	2.005947
D:	2067.10	-1718	34	-16627	339	98	138	2524	87	-5110	179.888138	6.241307	1.972968
D:	2070.86	-1806	-60	-16514	472	113	177	2524	87	-5110	-179.797134	6.277665	1.352104
D:	2074.62	-1810	47	-16454	476	39	277	2524	87	-5110	179.841644	6.693743	1.635239
D:	2078.30	-1916	-5	-16326	402	97	337	2524	87	-5110	-179.987747	6.684158	1.283453
D:	2081.84	-1915	56	-16341	373	120	220	2524	87	-5110	179.808945	6.200144	1.587713
D:	2086.55	-1803	7	-16597	455	42	163	2526	138	-4979	179.981140	6.536679	3.111576
D:	2091.75	-1832	-6	-16302	345	75	126	2526	138	-4979	-179.984207	6.412120	2.611188
D:	2096.81	-1722	6	-16821	277	139	218	2526	138	-4979	179.984879	5.845295	2.689095
D:	2101.78	-1963	-25	-16398	247	63	217	2526	138	-4979	-179.917969	6.375234	2.233623
D:	2106.94	-1830	-53	-16737	160	104	132	2530	90	-5154	-179.823868	6.240006	1.980201
D:	2111.51	-1945	40	-16500	206	-41	124	2530	90	-5154	179.866425	6.723111	1.424894
D:	2115.18	-1866	182	-16523	145	34	53	2530	90	-5154	179.866425	6.443115	0.615602
D:	2119.14	-1912	-88	-16590	100	-64	140	2530	90	-5154	179.374191	6.574445	2.165343
D:	2122.97	-1912	-88	-16590	166	-42	40	2530	90	-5154	-179.701385	6.134888	1.432958
D:	2126.71	-1708	41	-15891	265	-48	148	2524	131	-5302	179.857483	6.326469	3.182438
D:	2130.56	-1880	-131	-16957	308	-179	75	2524	131	-5302	-179.562668	6.490593	1.949903
D:	2134.32	-1818	76	-15980	399	-193	116	2524	131	-5302	179.732803	6.545935	2.836593
D:	2137.90	-1968	-75	-17151	397	-95	24	2524	131	-5302	-179.754745	6.958475	2.001647
D:	2141.48	-2004	65	-16420	397	4	72	2524	131	-5302	179.778488	6.521420	3.057498
D:	2145.01	-1877	-109	-16728	490	4	72	2524	131	-5302	-179.631973	6.402267	2.628031
D:	2148.80	-1702	-170	-16209	463	-3	74	2517	106	-5162	-179.404388	6.593965	2.163327
D:	2153.93	-1927	-35	-16671	591	196	-1	2517	106	-5162	-179.885010	6.319326	2.216023
D:	2159.00	-1887	-1	-16450	666	112	111	2517	106	-5162	-180.001831	6.544061	1.971290
D:	2163.54	-1904	-31	-16394	645	151	163	2517	106	-5162	-179.896957	6.624840	3.013379
D:	2168.32	-1776	-85	-16541	574	120	122	2517	152	-4876	-179.710876	6.128446	3.322361
D:	2172.60	-1800	0	-16195	587	147	199	2527	152	-4876	180.005310	6.342320	2.852976
D:	2176.25	-1868	-80	-16483	511	161	105	2527	152	-4876	-179.727219	6.465796	3.285728
D:	2179.85	-1896	-52	-16492	470	189	96	2527	152	-4876	-179.824646	6.558369	3.123446
D:	2183.52	-1876	-151	-16361	416	151	121	2527	152	-4876	-179.476501	6.541050	3.676611
D:	2187.19	-1876	-151	-16361	305	212	44	2527	152	-4876	-179.476501	6.219494	3.236594
D:	2190.80	-1787	-67	-16398	311	299	34	2521	133	-5189	-179.771194	6.121221	2.863415
D:	2194.44	-1749	-63	-16309	263	288	-29	2521	133	-5189	-179.783981	5.635828	3.173832
D:	2198.10	-1654	-111	-16761	155	259	93	2521	133	-5189	-179.625854	6.305649	2.960368
D:	2201.95	-1805	-82	-16335	138	244	101	2521	133	-5189	-179.717697	6.727408	3.083035
D:	2205.61	-1947	-110	-16506	138	252	19	2521	133	-5189	-179.623459	5.939501	3.296184
D:	2209.19	-1709	-134	-16427	154	252	19	2521	133	-5189	-179.537918	5.939438	3.658809
D:	2212.84	-1925	-154	-16416	202	44	62	2511	150	-4894	-179.467819	6.688073	3.756841
D:	2216.95	-1647	-98	-16536	75	143	120	2511	150	-4894	-179.665741	5.935842	3.454329
D:	2222.04	-1707	-105	-16418	86	87	5	2511	150	-4894	-179.638870	6.230853	3.353423
D:	2227.07	-1842	-97	-16595	147	88	26	2511	150	-4894	-179.670410	6.333829	3.367424
D:	2231.52	-1847	-51	-16476	170	148	126	2514	122	-5028	-179.827957	6.396451	2.575386
D:	2236.64	-1817	-65	-16545	221	-20	-35	2514	122	-5028	-179.780212	6.267342	2.363861
D:	2241.24	-1737	-11	-16105	353	7	82	2514	122	-5028	-179.966187	6.156003	2.668423
D:	2244.98	-1960	-72	-16707	435	7	82	2514	122	-5028	-179.758377	6.691268	2.658379
D:	2248.58	-1943	-40	-16214	514	12	102	2514	122	-5028	-179.863953	6.833618	3.494381
D:	2252.37	-1755	-38	-16835	559	3	58	2518	178	-5281	-179.875977	5.951583	3.560983
D:	2256.21	-1910	-171	-16283	610	148	73	2518	178	-5281	-179.403610	6.690069	4.284898
D:	2259.80	-1730	-88	-16602	672	124	97	2518	178	-5281	-179.701599	5.949090	3.861750
D:	2263.43	-1843	-171	-16478	745	152	105	2518	178	-5281	-179.701599	6.381634	4.309680
D:	2266.97	-1843	-171	-16478	630	184	68	2518	178	-5281	-179.410721	6.517667	3.728517
D:	2270.61	-1879	-75	-16447	668	231	95	2520	146	-5105	-179.744019	5.831274	3.421009
D:	2274.29	-1690	-113	-16548	637	222	54	2520	146	-5105	-179.614059	7.091686	3.519737
D:	2277.85	-2032	-149	-16333	558	223	-43	2520	146	-5105	-179.482620	6.352334	3.951557
D:	2281.42	-1851	-215	-16626	558	243	118	2520	146	-5105	-179.264404	6.157344	3.223593
D:	2286.22	-1762	-83	-16333	462	237	84	2520	146	-5105	-179.714142	6.304858	3.800703
D:	2291.37	-1556	-221	-16377	332	173	67	2519	175	-5006	-179.232147	5.427123	4.651589
D:	2295.95	-1864	-143	-16432	174	302	89	2519	175	-5006	-179.506683	6.471755	4.080564
D:	2301.02	-1845	-267	-16367	191	235	52	2519	175	-5006	-179.070679	5.821452	4.061050
D:	2306.27	-1690	-129	-16576	25	271	10	2519	175	-5006	-179.559402	6.385862	4.152282
D:	2311.18	-1830	-131	-16414	8	234	84	2510	157	-5060	-179.465668	6.299564	3.702906
D:	2314.90	-1812	-131	-16414	51	246	150	2510	157	-5060	-179.548035	6.649589	3.657732
D:	2318.47	-1911	-129	-16392	22	149	40	2510	157	-5060	-179.554398	6.264631	3.496699
D:	2322.26	-1789	-94	-16297	122	177	-19	2510	157	-5060	-179.674820	5.987128	3.857614
D:	2326.26	-1765	-156	-16829	146	66	96	2510	157	-5060	-179.474197	6.566390	3.825893
D:	2329.92	-1912	-159	-16610	137	34	96	2510	157	-5060	-179.456848	6.151610	3.514496
D:	2333.58	-1761	-95	-16339	137	87	62	2510	157	-4878	-179.672165	6.151610	4.134134
D:	2337.44	-1719	-99	-16457	222	12	103	2514	188	-4878	-179.660629	5.963219	4.393075
D:	2341.09	-1843	-154	-16503	230	12	103	2514	188	-4878	-179.470642	6.372111	4.394825
D:	2344.69	-1839	-150	-16507	386	-1	115	2514	188	-4878	-179.484665	6.356881	4.372452
D:	2348.28	-1777	-101	-16464	456	-14	23	2514	188	-4878	-179.653824	6.160294	4.123568
D:	2352.55	-1768	-61	-16270	547	27	81	2514	188	-4878	-179.790497	6.201923	4.014297
D:	2356.90	-1566	-190	-16514	566	34	138	2514	151	-5047	-179.346115	5.416885	3.988086
D:	2361.23	-1767	-198	-16392	606	77	117	2514	151	-5047	-179.313248	6.698086	3.360028
D:	2365.53	-1927	-98	-16409	652	97	90	2514	151	-5047	-179.663116	5.565103	4.601511
D:	2370.47	-1627	-297	-16696	684	81	51	2514	151	-5047	-178.986160	6.547799	3.821826
D:	2374.94	-1889	-177	-16457	617	152	3	2524	182	-4932	-179.389069	6.523320	4.500129
D:	2378.70	-1850	-195	-16178	504	235	42	2524	182	-4932	-179.314697	5.975764	4.508738
D:	2382.43	-1711	-187	-16345	379	213	107	2524	182	-4932	-179.349808	6.422205	5.171915
D:	2386.10	-1842	-315	-16362	355	180	63	2524	182	-4932	-178.902344	6.315776	4.755372
D:	2389.69	-1832	-241	-16551	355	256	110	2524	182	-4932	-179.171051	6.095401	4.851463
D:	2393.42	-1766	-253	-16536	343	291	88	2524	182	-4932	-179.128738	6.203724	3.970483
D:	2397.26	-1761	-121	-16201	231	291	88	2505	173	-5069	-179.577377	6.203535	4.689466
D:	2400.90	-1834	-252	-16629	153	290	109	2505	173	-5069	-179.137070	6.293142	4.689466
D:	2404.47	-1901	-214	-16483	-92	304	2	2505	173	-5069	-179.261444	6.578555	4.449322
D:	2407.99	-1761	-207	-16470	-110	261	60	2505	173	-5069	-179.285217	6.102676	4.467630
D:	2411.55	-1707	-237	-16399	-121	219	52	2505	173	-5069	-179.177277	5.942173	4.667563
D:	2415.44	-1789	-155	-16214	-143	319	87	2509	178	-4985	-179.457581	6.296261	4.244650
D:	2419.23	-1789	-293	-16625	-117	267	32	2509	178	-4985	-179.457581	5.953721	5.043341
D:	2422.92	-1734	-293	-16625	-78	189	-2	2509	178	-4985	-178.995605	6.007782	4.339916
D:	2426.60	-1730	-168	-16438	-61	178	-41	2509	178	-4985	-179.419739	6.058474	4.164762
D:	2430.33	-1752	-139	-16507	-16	70	18	2509	178	-4985	-179.522842	5.677128	4.504735
D:	2434.01	-1645	-191	-16547	38	93	67	2509	178	-4985	-179.343964	6.129500	4.550584
D:	2437.99	-1768	-247	-16462	112	56	96	2515	166	-5075	-179.145676	6.187015	3.977957
D:	2441.65	-1786	-149	-16475	112	90	-44	2515	166	-5075	-179.487106	6.187015	3.936169
D:	2445.21	-1931	-151	-16480	191	90	-44	2515	166	-5075	-179.480331	6.682926	3.868992
D:	2449.02	-1912	-138	-16480	196	33	83	2515	166	-5075	-179.525528	6.617801	4.036333
D:	2453.38	-1819	-162	-16752	233	-252	47	2515	166	-5075	-179.451233	7.113686	4.232551
D:	2458.39	-2046	-165	-16394	307	52	118	2512	180	-4955	-179.428650	6.627542	4.051911
D:	2463.55	-1768	-209	-16787	371	64	38	2512	180	-4955	-179.291992	6.011919	4.580144
D:	2468.08	-2003	-175	-16673	343	27	169	2512	180	-4955	-179.403946	6.850190	4.301010
D:	2472.59	-1666	-154	-16636	335	99	126	2512	180	-4955	-179.474915	5.718702	4.703671
D:	2477.21	-1736	-273	-16368	328	108	164	2503	165	-4973	-179.049728	6.053535	3.507739
D:	2481.24	-1704	-63	-16398	169	108	164	2503	165	-4973	-179.785172	5.932736	5.024521
D:	2484.89	-1639	-325	-16719	99	194	126	2503	165	-4973	-178.891647	5.598054	4.744544
D:	2488.80	-1648	-277	-16783	-23	233	101	2503	165	-4973	-179.059723	5.607564	4.744544
D:	2492.43	-1761	-449	-16429	-56	311	99	2503	165	-4973	-178.439774	6.116004	5.692133
D:	2496.10	-1654	-350	-16493	-44	333	106	2503	165	-4973	-178.789566	5.725647	5.255103
D:	2499.90	-1851	-132	-16386	-311	286	80	2510	170	-4958	-179.543747	6.444925	3.937003
D:	2503.59	-1783	-249	-16490	-300	253	117	2510	170	-4958	-179.140182	6.170681	4.622841
D:	2507.40	-1848	-209	-16665	-403	170	82	2510	170	-4958	-179.140182	6.327432	4.366054
D:	2511.10	-1848	-209	-16665	-509	157	109	2510	170	-4958	-179.286758	6.246438	3.850674
D:	2514.63	-1791	-113	-16363	-497	185	82	2510	170	-4958	-179.609634	5.454024	3.172685
D:	2518.25	-1583	18	-16580	-380	113	124	2510	170	-4958	179.943100	6.082120	3.940437
D:	2521.82	-1751	-133	-16433	-249	219	130	2497	167	-5055	-179.541595	5.723463	4.035783
D:	2525.48	-1629	-141	-16253	-249	111	139	2497	167	-5055	-179.508255	5.996638	3.799408
D:	2529.34	-1739	-108	-16555	-156	-24	49	2497	167	-5055	-179.631531	6.677447	3.610000
D:	2533.53	-1940	-87	-16571	-195	3	82	2497	167	-5055	-179.704483	5.853138	3.486709
D:	2537.91	-1678	-51	-16369	28	-77	93	2497	167	-5055	-179.826797	5.480334	3.768452
D:	2542.16	-1586	-81	-16531	163	-85	56	2502	171	-5008	-179.724548	6.476087	3.931500
D:	2547.09	-1685	-95	-16518	331	-43	40	2502	171	-5008	-179.675766	5.824667	3.813930
D:	2551.83	-1795	-28	-16289	376	-43	128	2502	171	-5008	-179.906815	6.288631	3.386343
D:	2556.17	-1761	-258	-16400	542	-45	72	2502	171	-5008	-179.104004	6.128254	4.500581
D:	2560.56	-1698	-201	-16343	631	16	29	2509	159	-5097	-179.300659	5.931347	4.195361
D:	2564.28	-1865	-126	-16428	514	-31	130	2509	159	-5097	-179.565857	6.476816	3.694595
D:	2567.86	-1816	-311	-16482	454	40	27	2509	159	-5097	-178.924286	6.286609	4.779272
D:	2571.67	-1852	-233	-16330	508	12	56	2509	159	-5097	-179.187836	6.469858	4.320402
D:	2575.46	-1840	-293	-16408	402	70	70	2509	159	-5097	-178.982239	6.397618	4.669024
D:	2578.99	-1840	-293	-16408	282	273	36	2502	195	-4986	-178.982239	6.105448	5.537790
D:	2582.94	-1765	-323	-16498	180	185	40	2502	195	-4986	-178.883652	6.356990	4.980987
D:	2587.06	-1729	-267	-16396	39	386	47	2502	195	-4986	-179.203003	6.019124	5.241094
D:	2591.34	-1688	-343	-16440	16	406	74	2502	195	-4986	-178.810043	5.861287	5.695752
D:	2595.12	-1688	-343	-16440	-84	307	56	2502	195	-4986	-178.810043	6.404455	4.857656
D:	2598.95	-1782	-197	-16600	-491	396	39	2510	171	-4939	-179.325363	6.126956	4.344071
D:	2604.09	-1662	-254	-16528	-341	234	4	2510	171	-4939	-179.124832	5.741664	4.138019
D:	2609.25	-1714	-155	-16317	-412	204	26	2510	171	-4939	-179.461044	5.571477	3.680099
D:	2613.79	-1621	-69	-16618	-408	121	57	2510	171	-4939	-179.767395	6.493999	3.582900
D:	2618.67	-1872	-67	-16446	-387	165	27	2500	160	-5020	-179.911896	6.021601	3.195222
D:	2623.33	-1693	210	-16373	-258	152	96	2500	160	-5020	-179.911896	5.903207	1.823418
D:	2626.88	-1693	210	-16373	-179	33	-12	2500	160	-5020	179.270447	5.901766	4.922928
D:	2630.44	-1715	-326	-16588	-191	15	86	2500	160	-5020	-178.879410	6.141329	4.562302
D:	2634.12	-1803	-271	-16755	-134	-83	40	2500	160	-5020	-179.078644	6.080035	3.742453
D:	2637.79	-1731	-121	-16251	-66	-156	90	2500	160	-5020	-179.578705	6.085835	3.636641
D:	2641.47	-1749	-149	-16404	-66	-118	61	2496	146	-5004	-179.484879	6.372927	4.774920
D:	2645.09	-1844	-355	-16508	-43	-118	61	2496	146	-5004	-178.773315	6.372439	4.819040
D:	2648.74	-1721	-311	-16283	-69	-74	146	2496	146	-5004	-178.911087	6.032452	4.591430
D:	2652.64	-1788	108	-16875	-18	-108	49	2496	146	-5004	179.638596	6.048295	2.168900
D:	2656.26	-1960	157	-16184	113	-128	-10	2496	146	-5004	179.449478	6.905188	1.812510
D:	2659.83	-1735	-359	-16315	48	-50	145	2496	146	-5004	-178.744720	6.068961	5.147155
D:	2663.49	-1782	210	-16441	104	35	66	2517	162	-5085	179.273499	6.185683	1.822165
D:	2667.67	-1858	-454	-16436	106	96	13	2517	162	-5085	-178.423019	6.447346	5.622268
D:	2672.16	-1612	247	-16445	2	23	17	2517	162	-5085	179.144775	5.597998	4.504965
D:	2677.03	-1563	-239	-16699	-87	272	13	2517	162	-5085	-179.185303	5.561362	3.672645
D:	2682.31	-1595	-98	-16381	-402	152	40	2502	177	-5209	-179.662521	5.353660	5.179704
D:	2687.56	-1797	-453	-16458	-347	169	104	2502	177	-5209	-178.428619	6.229114	6.087724
D:	2692.71	-1645	-215	-16598	-470	192	90	2502	177	-5209	-179.263153	5.659700	1.813901
D:	2696.82	-1654	253	-16191	-744	218	123	2502	177	-5209	179.110062	5.832312	1.805341
D:	2700.42	-1734	-163	-16506	-507	182	99	2502	177	-5209	-179.439499	5.996966	3.439927
D:	2703.97	-1560	-5	-16341	-470	153	75	2494	131	-5031	-179.987762	5.453398	2.563182
D:	2707.53	-1667	120	-16698	-558	87	14	2494	131	-5031	179.593536	5.701102	1.822035
D:	2711.28	-1779	34	-16254	-473	-36	43	2494	131	-5031	179.593536	6.246330	2.279565
D:	2715.01	-1779	34	-16254	-432	-19	141	2494	131	-5031	179.885452	6.180227	2.295514
D:	2718.68	-1761	32	-16263	-462	-30	35	2494	131	-5031	179.892563	6.277272	4.475428
D:	2722.19	-1805	-346	-16406	-460	-73	-6	2494	131	-5031	-178.797104	6.009935	3.378111
D:	2725.69	-1721	-120	-16347	-460	-85	40	2503	141	-5106	-179.584702	6.093743	4.078102
D:	2729.57	-1786	-246	-16728	-433	-216	39	2503	141	-5106	-179.162750	6.093743	3.087100
D:	2733.81	-1806	-75	-16285	-422	-268	-2	2503	141	-5106	-179.741440	5.535060	2.153189
D:	2738.21	-1597	93	-16480	-122	-222	-6	2503	141	-5106	179.681976	5.957388	2.509911
D:	2742.57	-1725	28	-16531	58	-222	-24	2502	126	-5073	179.908249	6.372983	2.371786
D:	2746.88	-1831	-1	-16394	77	-220	38	2502	126	-5073	-180.001816	6.505778	2.189576
D:	2751.23	-1835	-229	-16707	188	-144	52	2502	126	-5073	-179.219986	6.267512	3.679248
D:	2755.61	-1757	-72	-16297	233	-121	140	2502	126	-5073	-179.752151	6.153484	2.803036
D:	2759.53	-1886	-62	-16779	207	-52	50	2502	126	-5073	-179.793579	6.413410	2.714537
D:	2763.09	-1886	-62	-16779	332	-72	62	2499	146	-5085	-179.793579	6.189520	3.263343
D:	2766.69	-1742	-85	-16063	301	-53	1	2499	146	-5085	-179.702118	5.481151	4.009404
D:	2770.32	-1611	-206	-16788	188	19	18	2499	146	-5085	-179.302261	6.720725	2.848669
D:	2773.98	-1941	-23	-16472	117	31	126	2499	146	-5085	-179.925308	5.458860	4.221780
D:	2777.81	-1597	-241	-16710	54	137	-1	2499	146	-5085	-179.179001	6.396981	3.230698
D:	2781.55	-1853	-85	-16528	54	253	-53	2499	146	-5085	-179.710632	6.129779	1.589181
D:	2785.28	-1739	141	-16194	44	253	-53	2502	129	-5140	179.506439	6.129195	3.452047
D:	2788.89	-1708	-172	-16885	19	265	35	2502	129	-5140	-179.421677	5.775972	2.826410
D:	2792.79	-1813	-69	-16502	-57	203	29	2502	129	-5140	-179.765732	6.269814	2.826410
D:	2796.47	-1695	-129	-16454	-218	252	67	2502	129	-5140	-179.556107	5.881541	3.213454
D:	2800.17	-1963	111	-16595	-243	252	74	2502	129	-5140	179.622070	6.746142	2.141858
D:	2803.90	-1810	-107	-16504	-401	83	95	2502	151	-5240	-179.633835	6.258692	3.454571
D:	2807.47	-1569	-312	-16618	-501	157	126	2508	151	-5240	-179.633835	5.392847	4.768571
D:	2811.09	-1569	-312	-16618	-633	250	109	2508	151	-5240	-178.929688	6.816144	-0.143313
D:	2814.77	-1685	427	-14091	-611	281	62	2508	151	-5240	178.269562	6.396194	3.336376
D:	2818.73	-1929	-93	-17208	-252	141	98	2508	151	-5240	-179.695663	5.432417	3.543349
D:	2822.30	-1583	-109	-16646	-405	56	128	2508	151	-5240	-179.630127	6.282998	1.443660
D:	2825.89	-1769	226	-16066	-313	77	83	2508	151	-5240	179.199356	5.596423	3.543940
D:	2829.60	-1710	-241	-17450	-313	-17	61	2500	114	-5159	-179.214020	6.190545	2.237939
D:	2833.44	-1611	-14	-14854	-354	-55	-16	2500	114	-5159	-179.951309	6.190036	1.709107
D:	2837.09	-1734	81	-17180	-318	-55	-16	2500	114	-5159	179.735184	5.763527	2.443424
D:	2840.82	-1701	-47	-16478	-3	16	84	2500	114	-5159	-179.841873	5.893835	2.493598
D:	2844.48	-1410	-25	-15547	-331	102	101	2500	114	-5159	-179.913162	5.182280	2.442962
D:	2847.99	-1896	-8	-16592	-101	53	148	2502	118	-5209	-179.977692	6.519215	2.242779
D:	2852.56	-1534	83	-16367	-44	92	89	2502	118	-5209	179.714752	5.354505	1.427642
D:	2857.69	-1784	138	-16954	50	32	55	2502	118	-5209	179.538925	4.843855	5.723819
D:	2862.17	-1791	-714	-21123	-150	141	115	2502	118	-5209	-178.069290	1.300431	0.923458
D:	2866.86	-2502	331	-15647	-632	43	-48	2498	96	-5127	178.793411	9.083120	-0.217816
D:	2871.42	-1702	-607	-19848	389	271	31	2498	96	-5127	-178.253571	4.899086	4.935300
D:	2875.10	-1702	-607	-19848	-220	576	60	2498	96	-5127	-178.253571	7.054928	0.956908
D:	2878.75	-1670	116	-13494	-160	309	32	2498	96	-5127	179.512772	5.461634	3.085526
D:	2882.38	-1798	-236	-18804	-197	96	17	2498	96	-5127	-179.286240	7.624557	4.082510
D:	2885.97	-2177	-410	-16258	-519	225	-6	2498	96	-5127	-178.560669	4.174628	1.495399
D:	2889.55	-1100	170	-15070	-519	-34	3	2502	131	-4996	179.358978	4.174628	3.423415
D:	2893.30	-1682	-162	-17211	-401	-15	16	2502	131	-4996	-179.466019	5.581608	2.705156
D:	2897.10	-1881	-43	-16736	-300	-15	16	2502	131	-4996	-179.858078	6.412870	1.677787
D:	2900.74	-1702	132	-15601	-421	276	26	2502	131	-4996	179.520508	6.226055	1.677787
D:	2904.41	-1787	-87	-16782	-281	287	-33	2502	131	-4996	-179.708267	6.078229	2.465538
D:	2908.11	-1764	28	-16008	-295	345	-48	2503	104	-5063	179.905075	6.288508	1.791186
D:	2911.73	-1241	-15	-16673	-126	254	58	2503	104	-5063	-179.953751	4.256898	2.164764
D:	2915.33	-1525	-25	-16459	-145	159	39	2503	104	-5063	-179.953751	5.293746	2.161410
D:	2918.89	-1525	-25	-16459	-240	-27	14	2503	104	-5063	-179.918274	5.602789	2.126756
D:	2922.45	-1593	-22	-16239	-116	-114	49	2503	104	-5063	-179.927673	5.458559	0.657038
D:	2926.01	-1599	231	-16732	38	-7	50	2503	104	-5063	179.214310	5.740918	1.517405
D:	2929.77	-1620	104	-16114	6	63	71	2496	113	-5186	179.635513	5.444092	3.179185
D:	2933.81	-1596	-169	-16746	170	59	6	2496	113	-5186	-179.427078	5.756812	0.242103
D:	2938.46	-1663	319	-16493	195	87	-7	2496	113	-5186	178.897217	5.679849	1.983583
D:	2943.00	-1500	-93	-16346	218	145	93	2496	113	-5186	179.903610	5.243165	2.756902
D:	2947.52	-1781	212	-16175	169	-5	51	2497	80	-5083	179.254379	6.283073	0.252289
D:	2952.16	-1602	194	-16732	27	81	84	2497	80	-5083	179.341003	5.468891	0.406342
D:	2956.09	-1599	191	-16617	173	44	113	2497	80	-5083	179.346741	5.496265	0.415839
D:	2959.82	-1652	-41	-16411	155	54	-4	2497	80	-5083	-179.862167	5.748421	1.773728
D:	2963.42	-1615	-36	-16789	141	152	85	2497	80	-5083	-179.882446	5.494750	1.751778
D:	2967.39	-1741	57	-16243	194	149	5	2497	80	-4942	179.804245	6.118013	1.886071
D:	2972.54	-1660	10	-16416	75	155	1	2514	117	-4942	179.970413	5.774339	2.391074
D:	2977.72	-1598	-25	-16335	-66	113	55	2514	117	-4942	-179.917618	5.756145	1.256438
D:	2982.30	-1652	170	-16388	-92	109	123	2514	117	-4942	179.410950	6.206713	1.753550
D:	2987.03	-1747	100	-16337	-222	39	47	2514	117	-4942	179.654587	6.103806	1.012285
D:	2992.29	-1596	33	-16273	-363	57	71	2498	85	-5139	179.889114	5.601613	1.405504
D:	2996.63	-1791	81	-16446	-302	28	59	2498	85	-5139	179.723114	6.215233	1.124967
D:	3000.25	-1636	82	-16168	-214	92	25	2498	85	-5139	179.714706	5.778049	1.124454
D:	3003.85	-1643	46	-16514	-136	-56	42	2498	85	-5139	179.845703	5.681882	1.352234
D:	3007.40	-1598	74	-16341	-134	-59	43	2498	85	-5139	179.845703	5.585351	1.184173
D:	3011.10	-1598	74	-16341	-26	45	48	2504	107	-5278	179.745850	6.011008	1.755967
D:	3014.71	-1702	42	-16164	-7	-11	102	2504	107	-5278	179.856430	5.286206	1.754893
D:	3019.29	-1694	49	-16241	22	-71	43	2504	107	-5278	179.832443	5.954791	1.717153
D:	3024.55	-1643	24	-16485	76	8	37	2504	107	-5278	179.921890	5.691828	1.441043
D:	3029.40	-1710	95	-16398	127	-20	73	2504	107	-5278	179.673370	5.771087	1.697207
D:	3034.04	-1644	10	-16267	116	104	112	2500	92	-5092	179.970093	5.589374	1.062005
D:	3038.38	-1603	118	-16380	209	82	45	2500	92	-5092	179.592545	6.049910	1.222434
D:	3042.02	-1727	88	-16295	176	64	139	2500	92	-5092	179.695892	6.602806	1.107402
D:	3045.63	-1912	106	-16518	176	115	109	2500	92	-5092	179.637619	5.800281	1.545008
D:	3049.19	-1687	36	-16608	130	115	109	2500	92	-5092	179.881104	5.800229	1.664604
D:	3052.71	-1741	110	-16328	154	144	33	2493	124	-5292	179.619308	6.086304	1.664604
D:	3056.30	-1637	11	-16544	115	70	74	2493	124	-5292	179.967209	5.651088	2.298343
D:	3059.99	-1655	10	-16533	-55	105	121	2493	124	-5292	179.970657	5.716594	2.300010
D:	3063.74	-1745	53	-16418	-22	94	69	2493	124	-5292	179.820358	6.067097	2.015380
D:	3067.32	-1677	103	-16485	-130	183	41	2493	124	-5292	179.820358	5.808709	1.727113
D:	3070.82	-1677	103	-16485	-154	40	37	2487	84	-5094	179.647324	5.996268	1.224060
D:	3074.42	-1704	63	-16223	-147	62	90	2487	84	-5094	179.782791	5.892994	1.259979
D:	3077.96	-1686	58	-16335	-228	-67	34	2487	84	-5094	179.801865	6.263919	1.411705
D:	3081.56	-1788	30	-16290	-228	28	63	2487	84	-5094	179.899780	6.263919	0.624393
D:	3085.20	-1758	165	-16434	-138	28	63	2487	84	-5094	179.430054	6.105776	1.232716
D:	3088.79	-1696	64	-16610	-174	-3	83	2487	84	-5094	179.784546	5.830233	1.201733
D:	3092.36	-1784	198	-16163	-169	-27	63	2508	82	-4957	179.303436	6.298275	0.401395
D:	3095.88	-1797	134	-16373	-66	-16	30	2508	82	-4957	179.536377	6.263340	0.782378
D:	3099.41	-1835	49	-16773	-95	10	-49	2508	82	-4957	179.536377	6.243602	1.275636
D:	3102.95	-1835	49	-16773	22	-28	17	2508	82	-4957	179.837936	5.952701	1.115144
D:	3106.54	-1698	77	-16285	18	21	6	2508	82	-4957	179.734406	5.467803	1.097990
D:	3110.24	-1588	84	-16590	78	-22	47	2508	82	-5074	179.715210	6.110407	0.735015
D:	3113.92	-1773	115	-16562	63	-78	20	2496	74	-5074	179.607468	5.717870	0.895950
D:	3117.94	-1659	89	-16569	134	-15	98	2496	74	-5074	179.697540	6.208206	1.217455
D:	3122.23	-1781	31	-16373	123	18	73	2496	74	-5074	179.896820	6.189244	0.370771
D:	3126.50	-1760	174	-16229	171	-13	78	2496	74	-5074	179.391022	6.140490	1.401658
D:	3131.23	-1724	92	-16402	152	71	59	2496	74	-5054	179.683929	6.000361	1.471161
D:	3136.16	-1680	5	-16504	154	99	-4	2509	106	-5054	179.987946	5.812490	1.989213
D:	3140.63	-1678	-68	-16487	168	102	107	2509	106	-5054	-179.768982	5.811512	1.186931
D:	3145.01	-1676	141	-16343	71	181	125	2509	106	-5054	179.510986	5.855258	2.035339
D:	3148.90	-1689	-3	-16571	26	169	84	2509	106	-5054	-179.994934	5.819949	2.057759
D:	3152.73	-1564	-206	-16463	-69	149	96	2509	106	-5054	-179.288376	5.426602	2.707371
D:	3156.42	-1738	125	-16326	-40	93	82	2502	79	-5148	179.566635	6.076593	0.747764
D:	3160.22	-1581	-16	-16676	-89	-34	70	2502	79	-5148	-179.950333	5.416005	1.615293
D:	3163.99	-1715	106	-16448	-191	14	103	2502	79	-5148	179.636078	5.952659	0.868622
D:	3167.55	-1488	-20	-16451	-222	-9	108	2502	79	-5148	-179.935638	5.168513	1.652401
D:	3171.14	-1488	-20	-16451	-120	63	39	2502	79	-5148	-179.935638	5.657720	0.996320
D:	3174.82	-1613	85	-16282	-194	79	84	2512	77	-5035	179.706192	6.225026	0.053090
D:	3178.74	-1777	240	-16290	-173	39	176	2512	77	-5035	179.161209	5.748044	1.238474
D:	3182.58	-1638	39	-16273	-105	23	31	2512	77	-5035	179.867996	6.569131	0.372046
D:	3186.35	-1870	184	-16238	-97	17	90	2512	77	-5035	179.356064	5.839095	0.801818
D:	3190.17	-1684	114	-16467	-83	-38	99	2512	77	-5035	179.608643	5.827014	1.037782
D:	3193.81	-1692	74	-16580	-36	-47	6	2512	77	-5035	179.749573	6.006600	0.353219
D:	3197.37	-1711	224	-16260	-36	-49	-222	2509	90	-5174	179.216019	6.006600	1.364703
D:	3201.79	-1749	57	-16669	81	30	42	2509	90	-5174	179.809372	5.871619	0.988050
D:	3206.46	-1688	120	-16414	173	16	-1	2509	90	-5174	179.586411	6.021471	1.844744
D:	3211.32	-1682	228	-16354	167	-26	40	2509	90	-5174	179.206543	5.871799	0.609339
D:	3216.55	-1795	196	-16094	359	55	81	2525	102	-5009	179.307556	6.363746	2.070826
D:	3221.52	-1667	-23	-16594	250	35	22	2525	102	-5009	-179.925888	6.445930	1.039070
D:	3225.66	-1846	151	-16339	62	100	-35	2525	102	-5009	179.475784	6.241522	1.164681
D:	3229.25	-1785	130	-16321	210	100	-35	2525	102	-5009	179.548935	6.241522	1.666196
D:	3232.96	-1723	46	-16587	217	163	83	2525	102	-5009	179.846405	5.930570	1.436107
D:	3236.75	-1732	41	-16372	226	135	140	2498	88	-5003	179.861816	6.039040	1.449180
D:	3240.54	-1646	92	-16464	106	174	193	2498	88	-5003	179.685135	5.709295	1.153003
D:	3244.19	-1761	36	-16480	31	85	77	2498	88	-5003	179.880142	6.099465	1.464119
D:	3247.77	-1719	93	-16323	-13	137	8	2498	88	-5003	179.678848	6.011827	1.133024
D:	3252.27	-1751	153	-16635	-41	60	99	2498	88	-5003	179.478333	6.008752	0.834810
D:	3256.97	-1729	126	-16303	-109	46	111	2504	84	-5150	179.562469	6.053822	1.079337
D:	3261.52	-1631	86	-16199	-148	-47	41	2504	84	-5150	179.701126	5.763644	0.493720
D:	3266.50	-1656	185	-16406	-115	-45	-34	2504	84	-5150	179.359238	6.409441	0.417397
D:	3271.17	-1828	39	-16573	-60	-55	-253	2504	84	-5150	179.870483	6.294444	1.198548
D:	3275.98	-1838	160	-16375	-120	-45	109	2501	76	-5163	179.445480	6.404203	0.478209
D:	3280.17	-1645	118	-16307	-3	-84	64	2501	76	-5163	179.590714	5.760355	0.736318
D:	3284.01	-1741	49	-16587	34	-253	92	2501	76	-5163	179.836044	5.992074	1.149982
D:	3288.04	-1756	275	-16440	182	-50	-53	2501	76	-5163	179.046951	6.096131	-0.195621
D:	3291.78	-1544	14	-16486	149	58	-4	2501	76	-5163	179.956650	5.350598	1.380632
D:	3295.41	-1649	108	-16458	270	4	-5	2501	76	-5163	179.956650	5.721670	0.803488
D:	3299.09	-1649	108	-16458	152	-7	-35	2519	95	-5153	179.629318	6.478746	1.258129
D:	3302.86	-1846	86	-16256	320	18	32	2519	95	-5153	179.702194	5.920228	1.252295
D:	3306.57	-1737	93	-16751	307	118	63	2519	95	-5153	179.687195	6.563493	1.156499
D:	3310.21	-1892	104	-16444	241	30	59	2519	95	-5153	179.642929	5.762053	1.723701
D:	3313.80	-1685	13	-16699	181	83	110	2519	95	-5153	179.960709	5.738031	1.119999
D:	3317.79	-1643	114	-16351	284	153	20	2519	95	-5153	179.605820	5.597868	1.925152
D:	3322.15	-1601	-11	-16335	191	100	108	2509	97	-5017	-179.966736	6.130516	1.868136
D:	3327.29	-1728	144	-16229	112	95	13	2509	97	-5017	179.496918	6.077672	0.993617
D:	3332.43	-1730	48	-16467	27	102	43	2509	97	-5017	179.838303	5.997566	1.393854
D:	3336.96	-1778	77	-16588	94	85	101	2509	97	-5017	179.739334	6.118057	0.742591
D:	3340.60	-1758	126	-16226	-36	91	70	2510	63	-5089	179.560379	6.183568	0.442045
D:	3344.19	-1656	92	-16721	100	69	4	2510	63	-5089	179.690063	5.656048	0.668586
D:	3347.71	-1769	130	-16402	-17	6	78	2510	63	-5089	179.551193	6.155699	0.426999
D:	3351.55	-1721	62	-16799	50	21	36	2510	63	-5089	179.793854	5.849483	0.840102
D:	3355.29	-1758	-48	-16399	-32	35	31	2510	63	-5089	179.793854	6.118989	1.468743
D:	3358.86	-1758	-48	-16399	-65	109	-32	2512	83	-5175	-179.837601	6.182402	0.204987
D:	3362.47	-1758	226	-16228	-74	179	57	2512	83	-5175	179.207397	5.391744	0.774359
D:	3366.42	-1524	133	-16147	99	40	23	2512	83	-5175	179.533371	6.075361	0.375620
D:	3371.44	-1759	110	-16525	206	49	56	2512	83	-5175	179.623917	6.076004	0.913293
D:	3376.05	-1740	133	-16497	256	-12	-24	2512	83	-5175	179.543396	6.020921	0.761224
D:	3380.54	-1790	131	-15940	348	24	19	2505	80	-4960	179.534424	6.407225	1.042608
D:	3385.48	-1498	90	-16798	377	-3	74	2505	80	-4960	179.698318	6.211505	1.438932
D:	3389.97	-1769	13	-16254	314	5	5	2505	80	-4960	179.959488	5.599945	0.797327
D:	3393.68	-1614	128	-16461	314	66	121	2505	80	-4960	179.559769	5.599945	1.519371
D:	3397.24	-1686	2	-16590	404	66	121	2505	80	-4960	179.998398	5.803074	1.703605
D:	3400.97	-1883	70	-16394	459	9	41	2500	113	-5106	179.760666	6.552361	1.764140
D:	3404.82	-1603	68	-16448	349	-7	97	2500	113	-5106	179.768417	5.566507	1.745475
D:	3408.42	-1704	152	-16363	226	7	124	2500	113	-5106	179.473083	5.945124	1.245638
D:	3412.26	-1704	64	-16561	295	47	-21	2500	113	-5106	179.783890	5.874753	1.775127
D:	3415.85	-1692	59	-16522	255	98	100	2500	113	-5106	179.800705	5.847349	1.444933
D:	3419.43	-1753	113	-16262	147	82	110	2512	94	-5043	179.800705	6.152607	1.111764
D:	3423.01	-1753	113	-16262	38	180	-48	2512	94	-5043	179.607162	6.850318	1.389004
D:	3426.64	-1983	62	-16507	-246	223	32	2512	94	-5043	179.790100	6.038610	1.568693
D:	3430.34	-1736	36	-16411	-86	179	16	2512	94	-5043	179.879623	6.692630	1.094972
D:	3434.10	-1923	114	-16388	-84	184	60	2512	94	-5043	179.606735	6.095814	1.334507
D:	3437.82	-1800	78	-16855	-119	159	225	2512	94	-5043	179.740158	6.064494	0.819666
D:	3441.41	-1730	180	-16283	-119	114	96	2512	102	-5273	179.371933	6.064494	1.323872
D:	3444.93	-1812	97	-16416	-32	114	96	2502	102	-5273	179.666748	6.298892	1.323872
D:	3448.73	-1858	-6	-16325	-113	76	58	2502	102	-5273	-179.984253	6.493266	0.667003
D:	3453.54	-1881	204	-16293	-103	178	11	2502	102	-5273	179.287949	5.817052	1.295669
D:	3458.69	-1678	105	-16471	-13	109	43	2502	102	-5273	179.847839	6.248937	1.637532
D:	3463.74	-1669	96	-16193	18	65	36	2512	93	-4992	179.665619	5.884723	1.206513
D:	3468.60	-1618	63	-16329	140	54	143	2512	93	-4992	179.784241	5.658949	0.712905
D:	3472.87	-1812	180	-16315	201	79	35	2512	93	-4992	179.373184	6.337298	0.730350
D:	3476.59	-1574	80	-16493	280	143	123	2512	93	-4992	179.727386	5.451577	1.324575
D:	3480.18	-1759	11	-16637	255	66	6	2512	93	-4992	179.967422	6.035534	1.903425
D:	3483.72	-1748	-43	-16358	275	81	76	2500	104	-5145	-179.854691	6.099585	2.219455
D:	3487.29	-1797	125	-16521	208	81	57	2500	104	-5145	-179.854691	6.207702	1.225559
D:	3490.98	-1797	125	-16521	242	61	128	2500	104	-5145	179.571808	6.941047	1.457915
D:	3494.91	-1978	79	-16248	279	127	94	2500	104	-5145	179.726730	6.011303	2.260895
D:	3498.88	-1742	-41	-16494	162	68	154	2500	104	-5145	-179.862885	6.029055	1.387176
D:	3504.20	-1736	130	-16481	211	149	75	2521	61	-5074	179.553360	6.012979	0.815265
D:	3508.88	-1859	56	-16468	186	154	176	2521	61	-5074	179.810471	6.227594	1.126177
D:	3513.99	-1813	3	-16615	10	258	61	2521	61	-5074	179.994965	5.573115	1.105601
D:	3519.08	-1726	-9	-16435	17	274	56	2521	61	-5074	-179.973938	5.995389	1.998154
D:	3524.23	-1932	160	-16413	41	209	44	2505	102	-4872	179.446762	6.713365	1.021295
D:	3527.91	-1842	57	-16408	39	180	34	2505	102	-4872	179.806274	6.405488	1.606792
D:	3531.55	-1749	204	-16341	129	136	62	2505	102	-4872	179.290054	6.108897	0.783924
D:	3535.20	-1749	204	-16341	89	132	57	2505	102	-4872	179.290054	5.775161	1.272064
D:	3538.79	-1653	120	-16344	198	99	112	2505	102	-4872	179.584625	6.062960	1.606612
D:	3542.55	-1754	60	-16514	220	59	137	2508	92	-5118	179.797134	6.359591	2.251540
D:	3546.19	-1815	-90	-16285	171	65	101	2508	92	-5118	-179.688660	5.311098	1.594774
D:	3549.84	-1537	30	-16534	227	76	102	2508	92	-5118	179.901337	6.447402	1.386981
D:	3553.42	-1825	56	-16150	227	26	81	2508	92	-5118	179.806641	6.248796	1.236192
D:	3557.10	-1798	84	-16421	193	26	81	2508	92	-5118	179.712219	6.248752	1.824286
D:	3561.00	-1717	-14	-16469	170	84	86	2508	92	-5118	-179.956604	5.952127	1.152854
D:	3564.93	-1774	175	-16315	220	130	-52	2505	117	-5184	179.390747	6.143742	2.318197
D:	3569.79	-1777	-20	-16509	275	174	103	2505	117	-5184	-179.935898	6.336026	1.462771
D:	3574.29	-1839	124	-16562	366	163	50	2505	117	-5184	179.576324	5.962051	2.217374
D:	3578.72	-1725	-1	-16518	169	148	3	2505	117	-5184	-180.001831	5.506848	2.252326
D:	3583.54	-1775	136	-16341	259	59	95	2502	85	-5094	179.528458	6.199275	0.803590
D:	3588.14	-1664	78	-16792	185	126	84	2502	85	-5094	179.739166	5.659345	1.174397
D:	3591.80	-1765	14	-16454	107	172	172	2502	85	-5094	179.956573	6.122813	1.524509
D:	3595.49	-1780	46	-16549	216	134	36	2502	85	-5094	179.846039	6.139254	1.338272
D:	3599.36	-1676	63	-16709	220	81	77	2502	85	-5094	179.789261	5.728035	1.257244
D:	3602.99	-1676	63	-16709	162	52	93	2502	120	-4919	179.789261	6.007681	2.026926
D:	3606.64	-1698	45	-16135	103	168	21	2499	120	-4919	179.845520	5.724277	1.914058
D:	3610.21	-1635	68	-16311	69	127	79	2499	120	-4919	179.766434	6.224373	1.823375
D:	3613.78	-1793	80	-16440	23	77	52	2499	120	-4919	179.726486	5.597017	2.258985
D:	3617.32	-1623	10	-16562	23	115	109	2499	120	-4919	179.970718	5.597017	2.713632
D:	3620.91	-1569	-67	-16598	18	115	109	2499	120	-4919	-179.774017	5.400208	2.713232
D:	3624.48	-1539	86	-16265	10	11	65	2499	120	-4919	179.702362	5.405339	1.171788
D:	3628.02	-1725	-9	-16417	137	46	25	2495	87	-5017	-179.973892	5.998463	1.710457
D:	3631.61	-1595	-13	-16713	133	93	51	2495	87	-5017	-179.960739	5.451653	1.758870
D:	3635.22	-1595	42	-16298	125	13	95	2495	87	-5017	-179.960739	6.132298	1.406594
D:	3638.78	-1751	42	-16298	181	30	65	2495	87	-5017	179.857651	5.282088	1.266621
D:	3642.31	-1549	73	-16755	77	82	49	2495	87	-5017	179.755676	5.896731	0.759875
D:	3645.83	-1689	154	-16353	118	155	96	2495	87	-5017	179.465744	6.028389	2.154785
D:	3649.57	-1738	18	-16458	118	144	86	2505	119	-5009	179.942642	5.720122	2.254438
D:	3653.43	-1639	4	-16363	104	180	78	2505	119	-5009	179.991302	6.246936	1.658766
D:	3657.02	-1798	102	-16426	55	180	78	2505	119	-5009	179.649521	6.246826	2.098300
D:	3660.75	-1702	31	-16832	34	128	77	2505	119	-5009	179.899780	5.774108	2.098300
D:	3664.42	-1698	78	-16439	103	108	60	2505	119	-5009	179.733444	5.897331	0.949363
D:	3668.91	-1802	86	-16394	107	120	72	2492	77	-5095	179.704727	6.272771	1.287066
D:	3673.60	-1623	33	-16591	-253	54	31	2492	77	-5095	179.891342	6.151835	1.197003
D:	3678.15	-1748	44	-16218	8	-64	7	2492	77	-5095	179.849854	5.843601	1.290178
D:	3682.57	-1704	31	-16650	-40	15	92	2492	77	-5095	179.898636	6.124277	1.518545
D:	3687.16	-1731	27	-16438	-56	39	7	2500	105	-5136	179.911179	6.011534	1.828936
D:	3691.27	-1897	48	-16586	17	69	57	2500	105	-5136	179.911179	6.524935	1.683173
D:	3694.99	-1897	48	-16586	-11	110	-14	2500	105	-5136	179.839493	6.007754	1.307719
D:	3698.69	-1713	114	-16277	44	59	140	2500	105	-5136	179.604019	6.041490	1.657419
D:	3702.32	-1747	56	-16507	-42	78	1	2500	105	-5136	179.810928	5.752472	1.660509
D:	3705.86	-1670	58	-16578	11	116	72	2500	105	-5136	179.804855	5.813418	1.596012
D:	3709.73	-1659	50	-16295	27	39	-2	2502	99	-5033	179.829498	5.859185	1.389363
D:	3713.46	-1697	86	-16537	27	23	-19	2502	99	-5033	179.707336	6.193521	1.210983
D:	3717.09	-1782	114	-16421	50	23	-19	2502	99	-5033	179.607529	6.193511	1.594243
D:	3720.70	-1721	50	-16524	59	-50	13	2502	99	-5033	179.831940	5.946153	1.594243
D:	3724.30	-1716	62	-16337	80	41	-31	2502	99	-5033	179.787872	5.996360	1.807868
D:	3727.89	-1755	68	-16436	130	9	-8	2504	115	-5132	179.768265	6.094953	1.769787
D:	3731.42	-1746	34	-16776	122	85	-22	2504	115	-5132	179.889191	5.941958	1.982527
D:	3735.77	-1724	180	-16332	67	35	12	2504	115	-5132	179.373840	6.025620	1.105253
D:	3740.16	-1769	46	-16499	114	-42	6	2504	115	-5132	179.845566	6.119952	1.899081
D:	3744.59	-1672	84	-16555	149	-65	-27	2504	115	-5132	179.714584	5.767224	1.276519
D:	3749.74	-1774	47	-16391	81	102	-22	2492	82	-5089	179.841019	6.049899	2.344096
D:	3754.25	-1746	-134	-16474	157	74	-234	2492	82	-5089	-179.539261	6.543230	1.419988
D:	3757.88	-1866	20	-16269	106	41	-57	2492	82	-5089	179.934860	5.092427	1.999420
D:	3761.43	-1488	-67	-16698	106	139	-26	2492	82	-5089	-179.775391	5.092427	0.673876
D:	3765.00	-1909	150	-16582	-38	139	-26	2492	82	-5089	179.487015	6.567183	1.091892
D:	3768.62	-1719	82	-16375	121	52	70	2492	82	-4968	179.718399	5.992898	1.846874
D:	3772.31	-1721	31	-16324	28	151	-17	2507	122	-4968	179.896500	6.018491	2.138854
D:	3776.10	-1718	138	-16259	-94	77	-15	2507	122	-4968	179.518997	6.031713	1.516647
D:	3779.89	-1709	44	-16404	-5	78	13	2507	122	-4968	179.851608	5.947881	2.068932
D:	3783.68	-1666	11	-16627	-58	145	34	2507	122	-4968	179.967407	5.722019	2.273852
D:	3787.49	-1690	14	-16318	-81	256	-2	2507	122	-4968	179.967407	5.913022	2.243459
D:	3791.32	-1909	40	-16502	-117	220	-119	2494	91	-5097	179.956146	6.598988	1.470726
D:	3794.84	-1909	40	-16502	-121	253	-37	2494	91	-5097	179.866425	5.977189	1.648355
D:	3798.80	-1518	0	-16482	-156	152	-33	2494	91	-5097	180.005310	5.262279	1.766363
D:	3803.97	-1593	46	-16398	-142	171	52	2494	91	-5097	179.844574	5.548786	1.476840
D:	3808.53	-1669	-40	-16331	-57	205	-16	2494	91	-5097	-179.864960	5.835425	1.501798
D:	3813.26	-1545	120	-16787	-137	114	-72	2509	116	-5287	179.595734	5.922674	1.718020
D:	3818.57	-1704	77	-16426	-85	132	17	2509	116	-5287	179.736710	6.184679	1.673496
D:	3823.35	-1731	152	-16216	-40	135	-36	2509	116	-5287	179.468246	6.092960	1.245470
D:	3827.59	-1697	141	-16347	-49	192	-52	2509	116	-5287	179.511108	5.926664	1.325872
D:	3831.25	-1715	92	-16470	13	71	-61	2503	69	-5079	179.511108	5.944795	0.771915
D:	3834.95	-1715	92	-16470	-22	50	-36	2503	69	-5079	179.685242	6.072638	0.644088
D:	3838.65	-1761	114	-16553	-81	-23	-39	2503	69	-5079	179.610718	6.099905	0.690634
D:	3842.36	-1754	105	-16413	52	9	-34	2503	69	-5079	179.638748	6.268851	0.773693
D:	3846.09	-1799	90	-16377	30	107	17	2503	69	-5079	179.690430	6.081677	0.619999
D:	3849.91	-1732	116	-16256	110	5	-10	2503	69	-5079	179.596436	5.454411	2.127055
D:	3853.47	-1584	100	-16589	110	46	-29	2508	141	-5050	179.659912	5.942111	1.944043
D:	3857.00	-1703	125	-16362	-3	46	-29	2508	141	-5050	179.567581	5.942103	1.944043
D:	3860.61	-1646	40	-16489	1	138	24	2508	141	-5050	179.866318	5.700767	2.459748
D:	3864.30	-1620	48	-16539	59	114	22	2508	141	-5050	179.839020	5.594435	2.420991
D:	3868.11	-1797	138	-16249	40	191	-55	2508	141	-5050	179.518707	6.310738	0.873200
D:	3871.76	-1654	-1	-16267	-57	107	-4	2492	89	-5040	-180.001801	5.805953	1.711479
D:	3875.26	-1819	129	-16319	29	57	-44	2492	89	-5040	-180.001801	6.360220	0.927959
D:	3878.94	-1819	129	-16319	17	202	36	2492	89	-5040	179.552399	5.584539	1.563880
D:	3882.55	-1622	26	-16589	-5	157	47	2492	89	-5040	179.915512	5.491758	1.655711
D:	3886.33	-1587	11	-16507	44	111	-38	2492	89	-5040	179.967133	6.037000	1.050715
D:	3890.11	-1749	111	-16538	39	110	250	2492	89	-5040	179.620743	5.624415	1.226539
D:	3893.75	-1619	79	-16440	63	37	36	2510	89	-5145	179.729965	6.119825	0.264385
D:	3897.33	-1737	236	-16200	63	114	51	2510	89	-5145	179.170654	6.119535	0.960871
D:	3901.37	-1678	123	-16488	8	112	19	2510	89	-5145	179.577881	6.223791	0.632357
D:	3906.30	-1806	178	-16560	-28	70	2	2510	89	-5145	179.389465	5.814897	0.880350
D:	3911.55	-1623	20	-16542	82	126	94	2504	87	-5112	179.936035	5.603738	1.547753
D:	3916.41	-1779	84	-16249	-31	30	-18	2504	87	-5112	179.709106	6.248168	1.641745
D:	3921.75	-1658	3	-16484	-3	144	-55	2504	87	-5112	179.994888	5.655988	1.441006
D:	3926.90	-1697	146	-16455	-63	219	-35	2504	87	-5112	179.496948	5.888027	0.791243
D:	3931.22	-1697	-10	-16375	63	-7	-20	2504	87	-5236	179.496948	6.079481	1.697065
D:	3934.88	-1744	-10	-16375	-47	10	-52	2503	88	-5236	-179.970322	6.228392	1.015959
D:	3938.60	-1792	106	-16420	-48	59	-54	2503	88	-5236	179.635437	6.232338	1.009716
D:	3942.19	-1776	106	-16263	-103	56	-149	2503	88	-5236	179.631851	5.667920	1.282250
D:	3945.80	-1684	67	-16968	-51	200	-102	2503	88	-5236	179.779068	5.918922	1.876768
D:	3949.32	-1686	-35	-16263	-51	74	11	2503	88	-5236	-179.882004	5.918922	1.006766
D:	3952.87	-1637	110	-16410	-29	74	11	2503	88	-5236	179.621246	5.696805	1.094709
D:	3956.62	-1586	92	-16506	-88	253	-51	2500	91	-5054	179.685944	5.488565	1.211128
D:	3960.27	-1655	146	-16293	-126	83	-58	2500	91	-5054	179.491898	5.800000	0.873539
D:	3963.81	-1688	114	-16883	30	151	-41	2500	91	-5054	179.618423	5.709624	1.089563
D:	3968.29	-1763	68	-16547	-62	179	-49	2500	91	-5054	179.769836	6.081763	1.192279
D:	3973.54	-1686	92	-16343	-4	118	-16	2500	91	-5054	179.682755	5.756306	0.745833
D:	3978.39	-1676	130	-16626	-31	203	-92	2494	78	-5008	179.557312	6.150052	0.447754
D:	3983.33	-1760	154	-16442	-119	119	-185	2494	78	-5008	179.468658	6.109758	0.591280
D:	3988.60	-1739	214	-16353	-66	182	-40	2494	78	-5008	179.255539	6.069761	0.654765
D:	3992.87	-1720	142	-16293	-82	174	-194	2494	78	-5008	179.505951	6.026164	0.685152
D:	3996.53	-1753	67	-16619	-66	139	-121	2499	81	-5143	179.774307	6.021518	1.141447
D:	4000.18	-1860	89	-16453	-53	164	-147	2499	81	-5143	179.695374	6.449960	0.995340
D:	4003.81	-1680	61	-16573	-44	80	-138	2499	81	-5143	179.794418	5.788415	1.183358
D:	4007.41	-1585	69	-16566	-17	139	-213	2499	81	-5143	179.794418	5.465417	1.146342
D:	4010.94	-1585	69	-16566	45	72	-274	2499	81	-5143	179.766647	6.344181	1.196441
D:	4014.56	-1822	55	-16388	68	28	-274	2499	87	-4963	179.737259	5.485354	1.233587
D:	4019.88	-1646	45	-16355	2	102	-286	2499	87	-4963	179.847656	5.747159	1.484099
D:	4025.07	-1691	32	-16606	-9	157	-315	2499	87	-4963	179.894897	5.653255	0.914166
D:	4029.71	-1641	132	-16578	-32	187	-339	2499	87	-4963	179.549088	5.883698	0.377499
D:	4034.38	-1688	222	-16379	10	155	-345	2499	91	-5093	179.228745	5.755847	1.352084
D:	4039.40	-1787	216	-16333	-43	182	-385	2499	91	-5093	179.247589	6.243561	0.445903
D:	4043.45	-1691	171	-16242	-36	100	-251	2499	91	-5093	179.402100	5.943658	0.710772
D:	4047.09	-1691	171	-16242	2	57	-252	2499	91	-5093	179.402100	5.259213	1.169271
D:	4050.82	-1528	100	-16600	52	103	-330	2499	91	-5093	179.660141	6.404957	2.072662
D:	4054.51	-1824	-62	-16249	121	133	-533	2500	79	-5037	-179.786682	3.537023	13.015275
D:	4058.08	-1013	-1853	-16284	83	119	-1971	2500	79	-5037	-173.513199	5.582386	-0.464189
D:	4061.62	-1609	337	-16459	83	227	-4511	2500	79	-5037	178.832306	5.582386	2.463782
D:	4065.21	-2644	-201	-16424	7	227	-4511	2500	79	-5037	-179.304138	9.144833	-6.590721
D:	4068.93	-4998	1730	-16622	-32	138	-8180	2500	79	-5037	174.063248	16.650858	0.511564
D:	4072.73	-2026	170	-16656	-59	47	-4437	2500	79	-5037	179.420532	6.935112	1.738517
D:	4076.47	-1686	-72	-16127	-127	125	-911	2497	145	-5029	-179.749496	5.968433	3.188174
D:	4080.23	-1423	56	-16205	-126	257	-523	2497	145	-5029	179.807297	5.018526	2.496317
D:	4083.91	-310	-1007	-16333	-19	283	-992	2497	145	-5029	-176.477142	1.085314	9.941384
D:	4087.49	-1387	809	-16622	2	252	-3192	2497	145	-5029	-176.477142	4.764444	-1.963833
D:	4091.09	-1387	809	-16622	-33	160	-5052	2497	145	-5029	177.218811	11.097868	-1.343336
D:	4094.70	-3244	740	-16522	-103	39	-2307	2497	145	-5029	177.440735	5.698980	2.267431
D:	4098.57	-1645	88	-16484	-51	65	-481	2506	139	-5237	179.699432	6.761394	1.716883
D:	4103.17	-1608	249	-16335	-97	170	-347	2506	139	-5237	179.131958	5.621540	1.127162
D:	4108.07	-1802	103	-16543	-115	192	-330	2506	139	-5237	179.648560	6.216683	1.783712
D:	4113.07	-1587	142	-16328	-59	228	-812	2506	139	-5237	179.507034	3.906648	4.040594
D:	4117.72	-1116	-196	-16342	-69	134	-2018	2506	139	-5237	-179.318146	2.431884	5.023563
D:	4122.18	-699	-199	-16458	-153	67	-3954	2502	177	-5111	-179.312531	10.541647	-1.836963
D:	4126.20	-3007	903	-16134	-127	159	-2724	2502	177	-5111	176.801773	7.522050	1.286419
D:	4129.85	-2179	343	-16499	-196	95	-989	2502	177	-5111	178.814316	5.868560	2.584219
D:	4133.47	-1701	133	-16549	-196	199	-501	2502	177	-5111	179.544830	5.868560	2.729500
D:	4137.17	-1629	107	-16150	-133	199	-501	2502	177	-5111	179.625702	5.759809	3.087020
D:	4140.91	-1245	8	-16614	-75	146	-703	2503	158	-5185	179.977722	4.285678	3.031740
D:	4144.52	-1405	-119	-16412	-112	169	-1152	2503	158	-5185	-179.589874	4.893069	3.811387
D:	4148.16	-1706	238	-16442	-196	116	-2074	2503	158	-5185	179.175980	5.923295	1.570625
D:	4152.74	-2305	484	-16483	-172	24	-2408	2503	158	-5185	178.323334	7.957527	1.511364
D:	4157.17	-1870	243	-16391	-139	32	-488	2503	158	-5185	179.155930	5.823050	2.220626
D:	4161.62	-1670	204	-16374	-175	38	-133	2504	182	-5209	179.291489	6.145760	1.560281
D:	4166.23	-1740	307	-16157	-49	-28	-141	2504	182	-5209	178.916733	5.447955	2.332777
D:	4170.97	-1687	156	-16285	-19	170	-119	2504	182	-5209	179.456451	5.914209	2.498365
D:	4175.54	-1647	168	-16501	-11	129	-197	2504	182	-5209	179.421967	5.699810	2.253846
D:	4179.43	-1713	131	-16146	-85	45	6	2509	171	-5162	179.421967	6.056087	2.432290
D:	4183.00	-1713	131	-16146	-25	0	-70	2509	171	-5162	179.540451	6.169944	2.572608
D:	4186.60	-1773	108	-16401	-87	99	-109	2509	171	-5162	179.628006	5.701089	2.165596
D:	4190.18	-1640	182	-16427	-76	118	-109	2509	171	-5162	179.370499	5.382125	2.222480
D:	4193.81	-1549	176	-16441	-29	-19	-181	2509	171	-5162	179.391968	5.538626	2.772641
D:	4197.40	-1583	82	-16325	-29	143	-224	2509	171	-5162	179.717514	5.538626	3.486685
D:	4201.14	-537	40	-16447	-58	143	-224	2499	175	-5163	179.865952	1.870112	4.463949
D:	4205.12	-1008	-140	-16104	-105	187	-1927	2499	175	-5163	-179.507202	3.581621	-0.426228
D:	4208.94	-4026	642	-16390	-87	203	-5927	2499	175	-5163	177.762100	13.790994	0.473475
D:	4212.72	-1956	478	-16512	-82	27	-3463	2499	175	-5163	178.347076	6.753131	0.473475
D:	4216.53	-1669	207	-16369	-73	82	-571	2499	175	-5163	179.280777	5.821527	2.156329
D:	4220.08	-1611	170	-16538	-33	25	-350	2508	179	-5165	179.416336	5.563616	2.405516
D:	4223.73	-1684	78	-16369	-98	141	-306	2508	179	-5165	179.732285	5.873883	2.923203
D:	4227.29	-1549	111	-16674	-84	205	-317	2508	179	-5165	179.732285	5.307534	2.782903
D:	4230.83	-1549	111	-16674	5	129	-319	2508	179	-5165	179.623871	5.904740	2.278634
D:	4234.59	-1687	185	-16311	-77	37	-266	2508	179	-5165	179.355469	5.478878	2.650335
D:	4238.27	-1574	129	-16410	-30	94	-350	2508	207	-5228	179.554901	5.247918	3.307967
D:	4242.12	-1509	110	-16429	-66	131	-673	2508	207	-5228	179.621674	3.766851	4.400308
D:	4245.86	-1074	-36	-16313	15	124	-1913	2502	207	-5228	-179.878876	3.841369	1.769471
D:	4250.31	-1115	378	-16602	-151	21	-3057	2502	207	-5228	178.700974	8.874931	3.401903
D:	4255.31	-2075	230	-16362	-106	85	-1776	2502	207	-5228	179.199936	7.227074	2.434450
D:	4259.90	-1639	126	-16465	-8	-4	-463	2502	207	-5228	179.566849	5.684754	3.045151
D:	4264.45	-1675	180	-16313	-109	-54	-353	2513	197	-4950	179.373108	5.862338	3.078259
D:	4269.00	-1579	123	-16444	-59	101	-255	2513	197	-4950	179.576736	5.484898	2.711671
D:	4273.57	-1725	179	-16386	-23	52	-320	2513	197	-4950	179.379425	6.141760	2.241599
D:	4277.79	-1752	258	-16280	-165	111	-484	2513	197	-4950	179.097351	4.270847	2.568539
D:	4281.54	-1239	228	-16590	-165	111	-1157	2513	197	-4950	179.217911	4.270847	-4.534207
D:	4285.14	-168	1315	-16366	-124	111	-1157	2503	219	-5257	175.411346	0.586259	6.749156
D:	4288.81	-2440	-513	-16187	-30	220	-3817	2503	219	-5257	-178.190033	8.568144	7.193035
D:	4292.47	-1798	246	-16579	77	-55	-3127	2503	219	-5257	179.155197	6.189069	2.641888
D:	4296.28	-1613	124	-16365	7	21	-714	2503	219	-5257	179.571167	5.629125	3.410155
D:	4299.89	-1656	124	-16291	79	25	-184	2503	219	-5257	179.569199	5.804254	3.013444
D:	4303.62	-1814	195	-16443	-13	-12	-81	2520	197	-5026	179.325836	6.295188	2.574049
D:	4307.24	-1635	219	-16494	3	3	-119	2520	197	-5026	179.325836	5.660734	2.483184
D:	4310.86	-1635	219	-16494	-102	40	-71	2520	197	-5026	179.244583	5.889903	3.026171
D:	4314.52	-1700	122	-16479	20	-28	-113	2520	197	-5026	179.581131	5.994635	2.176717
D:	4319.22	-1694	177	-16530	19	-6	-188	2520	197	-5026	179.391815	5.851104	2.714906
D:	4323.50	-1748	235	-16218	-12	-248	-129	2518	227	-5195	179.175125	6.151217	2.837950
D:	4327.71	-1623	220	-16330	-35	8	-222	2518	227	-5195	179.233429	5.675508	2.976337
D:	4332.18	-945	950	-16770	12	19	-299	2518	227	-5195	176.762939	3.220185	5.401812
D:	4337.19	-625	-93	-16157	-71	164	-6350	2518	227	-5195	-179.675491	14.670755	5.668075
D:	4341.11	-4289	-458	-16383	-5	164	-6350	2518	227	-5195	-178.403931	14.665500	4.125174
D:	4344.86	-1758	33	-16774	11	29	-3320	2511	228	-5049	179.892593	5.983210	4.125174
D:	4348.56	-1661	102	-16370	39	61	-536	2511	228	-5049	179.648315	5.793810	3.738411
D:	4352.41	-1552	169	-16678	-6	29	-376	2511	228	-5049	179.424728	5.316332	3.409455
D:	4356.08	-1647	255	-16510	-70	251	-348	2511	228	-5049	179.120422	5.696342	2.862458
D:	4359.71	-1336	414	-16367	-79	98	-449	2511	228	-5049	178.556290	4.665226	2.457428
D:	4363.50	-593	664	-16522	-115	132	-717	2521	250	-4937	177.703827	2.053955	1.095143
D:	4367.09	-593	664	-16522	-114	174	-2559	2521	250	-4937	177.703827	10.293715	5.541949
D:	4370.86	-2953	-251	-16258	24	208	-3025	2521	250	-4937	-179.120789	7.837274	4.145536
D:	4374.48	-2289	68	-16630	-13	76	-324	2521	250	-4937	179.771027	5.768710	3.312200
D:	4378.08	-1652	252	-16351	26	83	-80	2521	250	-4937	179.122314	6.174520	4.225137
D:	4381.81	-1794	86	-16583	57	81	-45	2521	250	-4937	179.708176	5.320537	3.092677
D:	4386.19	-1545	218	-16589	28	75	-15	2518	228	-5097	179.252396	6.321559	3.234232
D:	4391.33	-1751	166	-16454	34	60	-101	2518	228	-5097	179.427277	6.074306	3.320484
D:	4396.46	-1834	361	-16396	127	5	-52	2518	228	-5097	178.743973	6.381032	2.866628
D:	4401.65	-1659	248	-16438	61	-54	-151	2518	228	-5097	179.140930	5.626283	4.004307
D:	4406.44	-1629	200	-16535	8	31	-124	2512	268	-4882	179.312286	6.093825	3.718819
D:	4410.68	-1732	239	-16222	32	47	-133	2512	268	-4882	179.161194	5.815219	3.951575
D:	4414.45	-1707	210	-16760	127	113	-127	2512	268	-4882	179.287399	5.389856	4.044491
D:	4417.98	-1569	200	-16629	54	-5	-263	2512	268	-4882	179.316223	4.558331	-5.351584
D:	4421.55	-1338	1847	-16681	54	137	-1325	2512	268	-4882	173.686798	6.649304	4.128589
D:	4425.20	-1908	156	-16263	-36	137	-1325	2512	268	-4882	179.455719	6.691332	7.673023
D:	4428.77	-4636	-864	-16514	-80	131	-6212	2520	247	-5007	-177.010284	15.661200	4.577635
D:	4432.80	-1554	30	-16712	12	22	-3419	2520	247	-5007	179.902435	5.312638	4.516294
D:	4436.51	-1688	252	-16610	1	39	-526	2520	247	-5007	179.136078	5.802299	3.248052
D:	4440.08	-1738	251	-16299	-51	91	-246	2520	247	-5007	179.123016	6.086045	3.201612
D:	4443.61	-1619	183	-16683	-121	91	-273	2520	247	-5007	179.376816	5.542738	3.672988
D:	4447.17	-1619	183	-16683	-82	125	-308	2514	278	-5220	179.376816	5.364444	3.141030
D:	4450.95	-1525	354	-16237	-123	181	-745	2514	278	-5220	178.756302	-0.428937	1.710142
D:	4454.72	124	647	-16551	-91	243	-4105	2514	278	-5220	177.766602	7.436815	6.220711
D:	4458.36	-2095	-207	-16049	-27	205	-4293	2514	278	-5220	-179.266327	10.087027	5.255578
D:	4461.94	-2945	-107	-16555	-110	107	-1135	2514	278	-5220	-179.634979	5.338781	3.802499
D:	4466.48	-1550	252	-16585	-104	114	-411	2515	261	-5077	179.134781	6.302273	2.990531
D:	4471.63	-852	712	-16520	-215	88	-604	2515	261	-5077	177.537354	2.949702	0.870698
D:	4476.35	-492	287	-16189	-114	82	-1504	2515	261	-5077	178.989639	1.740519	2.989028
D:	4480.82	-2576	36	-16365	-71	125	-4076	2515	261	-5077	179.879257	8.945719	4.614381
D:	4485.66	-2383	10	-16965	-20	41	-1142	2515	261	-5077	179.971527	5.757371	4.101140
D:	4490.27	-1634	303	-16204	-97	13	-845	2522	314	-5176	178.934021	2.470815	3.480506
D:	4493.99	-723	476	-16749	-197	164	-2090	2522	314	-5176	178.377365	5.666138	3.586615
D:	4497.68	-1637	397	-16495	-197	78	-3688	2522	314	-5176	178.626541	8.971836	6.336277
D:	4501.29	-2584	-165	-16376	-137	108	-2719	2522	314	-5176	-179.428009	8.966693	4.972860
D:	4504.83	-2221	118	-16608	-115	108	-2719	2522	314	-5176	179.598221	7.617048	4.885903
D:	4508.54	-1618	358	-16061	-62	54	-1277	2520	308	-5124	178.728363	5.751372	3.669063
D:	4512.23	-1205	555	-16354	-47	17	-805	2520	308	-5124	178.061569	4.211777	2.655377
D:	4515.84	-1109	394	-16466	-102	133	-1885	2520	308	-5124	178.634537	3.852118	3.709300
D:	4519.43	-2348	-17	-16193	-49	70	-3077	2520	308	-5124	-179.945145	8.250678	5.543165
D:	4523.19	-2019	207	-16402	11	22	-2408	2520	308	-5124	-179.945145	7.017161	4.448664
D:	4526.95	-2019	207	-16402	-20	103	-1159	2510	343	-4863	179.282242	5.842823	3.874685
D:	4530.60	-1658	467	-16196	-80	112	-1167	2510	343	-4863	178.353622	3.750872	3.684026
D:	4534.33	-1075	543	-16389	-151	121	-2115	2510	343	-4863	178.107620	6.582055	5.476229
D:	4538.11	-1879	169	-16284	-73	76	-2831	2510	343	-4863	179.410675	8.285399	6.206490
D:	4541.73	-2357	-11	-16186	-109	78	-1847	2510	343	-4863	-179.966354	7.038546	5.323341
D:	4545.26	-2030	187	-16441	-109	78	-1847	2510	343	-4863	179.353638	7.038546	4.643956
D:	4549.58	-1739	267	-16229	147	179	-800	2526	332	-5095	179.062729	6.123627	4.232526
D:	4554.43	-1736	336	-16178	-20	117	-1044	2526	332	-5095	178.815460	4.480265	4.180739
D:	4558.96	-1758	297	-16494	-94	94	-1778	2526	332	-5095	178.973694	6.083057	4.500180
D:	4563.58	-2382	115	-16343	-85	126	-2718	2526	332	-5095	179.602127	8.292540	5.215058
D:	4568.19	-2094	129	-16393	-74	51	-2201	2526	332	-5140	179.554428	7.279387	5.965697
D:	4572.63	-1629	193	-16331	-5	104	-1075	2532	371	-5140	179.328201	5.696124	5.881526
D:	4576.50	-1560	322	-16260	-91	138	-732	2532	371	-5140	178.870773	5.479332	5.106962
D:	4580.09	-1138	524	-16148	-48	147	-878	2532	371	-5140	178.146667	4.029153	4.043237
D:	4583.69	-1556	162	-16357	-193	64	-2298	2532	371	-5140	179.437866	5.433946	6.074749
D:	4587.32	-2361	101	-16259	-60	66	-2484	2532	371	-5140	179.437866	8.262364	5.965867
D:	4590.87	-2361	101	-16259	14	26	-1638	2523	350	-5013	179.649384	5.803939	4.196567
D:	4594.47	-1650	416	-16228	-140	-71	-1374	2523	350	-5013	178.536819	5.106237	4.870283
D:	4598.31	-1448	316	-16202	-131	244	-1602	2523	350	-5013	178.887939	4.799697	4.930993
D:	4602.73	-1374	316	-16361	-16	111	-2183	2523	350	-5013	178.898788	3.991853	8.447043
D:	4607.40	-2174	-158	-16589	15	-22	-2510	2523	350	-5013	-179.459595	7.465991	8.054645
D:	4611.86	-2008	306	-16578	-5	50	-1969	2527	400	-5133	178.947815	6.905311	5.575461
D:	4616.59	-726	648	-16291	26	-10	-1588	2527	400	-5133	177.727417	2.549730	7.700612
D:	4621.43	-2043	-82	-16147	-35	110	-2636	2527	400	-5133	-179.714325	10.138225	9.747629
D:	4624.99	-2996	-595	-16755	-56	110	-2636	2527	400	-5133	-177.971420	10.132091	10.472858
D:	4628.54	-2083	367	-16480	8	96	-2321	2527	400	-5133	178.729538	7.202182	4.773678
D:	4632.09	-1456	382	-16456	-112	-19	-1792	2520	375	-5073	178.675476	5.055065	4.969243
D:	4635.77	-1163	320	-16561	-93	193	-1888	2520	375	-5073	178.898300	4.016386	5.512375
D:	4639.50	-2039	323	-16185	-172	116	-2511	2520	375	-5073	178.862000	7.179140	4.989741
D:	4643.24	-2039	193	-16649	-136	-9	-2379	2520	375	-5073	179.341125	7.425690	5.722821
D:	4646.86	-2170	193	-16649	-91	152	-1905	2520	375	-5073	179.341125	5.890670	5.135087
D:	4650.59	-1690	332	-16377	-91	132	-1640	2531	433	-4851	178.843903	5.623097	6.756273
D:	4654.26	-1613	264	-16381	-137	144	-2104	2531	433	-4851	179.081970	5.731465	7.112487
D:	4657.82	-1672	200	-16658	-8	122	-1902	2531	433	-4851	179.317398	7.168849	7.729106
D:	4661.75	-2073	34	-16482	-65	131	-1380	2531	433	-4851	179.887115	6.472151	6.952320
D:	4666.12	-1866	202	-16448	-140	125	-1109	2531	433	-4851	179.301666	5.485949	6.116091
D:	4671.32	-1672	453	-16221	-71	164	-1168	2528	436	-5076	178.405594	5.882947	5.533762
D:	4676.46	-1728	270	-16379	-159	100	-1307	2528	436	-5076	179.060867	6.021845	5.423015
D:	4681.00	-1667	471	-16186	-141	67	-1387	2528	436	-5076	178.338470	5.779640	6.140200
D:	4685.53	-1678	360	-16572	-128	199	-1623	2528	436	-5076	178.760818	6.127750	6.126100
D:	4690.63	-1778	352	-16558	-119	107	-1476	2521	440	-5000	178.478394	4.615721	6.002774
D:	4695.10	-1321	436	-16357	12	66	-1655	2521	440	-5000	178.478394	4.687945	6.565130
D:	4698.99	-1341	339	-16350	-61	114	-2202	2521	440	-5000	178.817490	6.093405	5.581911
D:	4702.71	-1756	470	-16443	-105	67	-2283	2521	440	-5000	178.367981	6.881622	6.497778
D:	4706.49	-1966	282	-16288	-97	123	-2075	2521	440	-5000	179.013382	5.862669	7.019106
D:	4710.28	-1700	226	-16555	-56	89	-1825	2501	444	-5046	179.223175	5.857734	6.341678
D:	4713.96	-1679	357	-16362	-61	150	-1882	2501	444	-5046	178.755325	5.333097	6.662789
D:	4717.54	-1545	322	-16548	-61	116	-1997	2501	444	-5046	178.890518	5.333097	7.309659
D:	4721.24	-1853	168	-16293	-140	172	-2020	2501	444	-5046	179.414520	6.488209	6.953124
D:	4724.99	-1963	220	-16372	-54	172	-2020	2501	444	-5046	179.235413	6.836706	6.417556
D:	4728.70	-1582	366	-16733	-34	108	-1479	2501	444	-5046	178.752243	5.399778	6.109643
D:	4733.05	-1788	369	-16216	-26	242	-1451	2501	444	-5154	178.701706	5.596027	7.268401
D:	4738.28	-1611	338	-16439	65	67	-1339	2519	490	-5154	178.827393	5.959530	7.027646
D:	4742.96	-1465	607	-16283	6	64	-1480	2519	490	-5154	177.870361	5.137726	5.720103
D:	4747.64	-1530	458	-16605	-30	94	-2132	2519	490	-5154	178.425323	5.262587	6.650664
D:	4752.63	-1860	0	-16297	-47	189	-2597	2519	490	-5154	180.005310	6.511268	8.786296
D:	4756.37	-1692	388	-16483	15	170	-2447	2522	476	-5062	178.656815	5.859514	6.722641
D:	4760.00	-1869	207	-16713	-19	216	-2527	2522	476	-5062	179.295685	6.380528	7.668264
D:	4763.62	-2006	115	-16314	5	165	-2360	2522	476	-5062	179.601410	7.010042	8.029671
D:	4767.32	-1481	308	-16484	19	123	-1976	2522	476	-5062	179.601410	5.133198	7.328015
D:	4770.89	-1481	308	-16484	-42	159	-1914	2522	476	-5062	178.934830	6.570399	8.179168
D:	4774.56	-1878	105	-16305	23	66	-1976	2511	492	-4993	179.636337	6.259951	7.500878
D:	4778.18	-1808	302	-16480	32	56	-1876	2511	492	-4993	178.955444	6.183670	7.700567
D:	4781.94	-1784	269	-16464	19	126	-1557	2511	492	-4993	179.069229	5.937935	6.943567
D:	4785.72	-1708	410	-16417	-33	117	-1611	2511	492	-4993	178.574646	4.433808	8.189483
D:	4789.49	-1283	252	-16545	-33	119	-2488	2511	492	-4993	179.132660	6.812483	8.318625
D:	4793.09	-1960	134	-16407	18	119	-2488	2511	492	-4993	179.537354	6.812315	8.008084
D:	4796.81	-2162	254	-16321	50	45	-2176	2505	522	-5067	179.113678	7.545207	8.313939
D:	4801.20	-1700	267	-16518	90	61	-1254	2505	522	-5067	179.079224	4.040619	7.156856
D:	4806.39	-1157	527	-16371	-64	143	-2188	2505	522	-5067	178.957626	5.182069	8.270664
D:	4811.92	-2275	180	-16451	229	66	-2961	2505	522	-5067	179.378403	7.873232	8.401362
D:	4817.00	-2144	173	-16192	17	71	-1305	2522	531	-5194	179.393158	5.629268	6.902536
D:	4821.57	-1603	517	-16259	85	127	-1461	2522	531	-5194	178.183990	4.752839	8.442988
D:	4825.70	-1357	295	-16319	34	68	-2321	2522	531	-5194	178.969650	6.034513	6.869093
D:	4829.34	-1728	512	-16340	34	82	-2706	2522	531	-5194	178.210526	6.033988	8.801188
D:	4832.88	-2039	142	-16493	61	82	-2706	2522	531	-5194	179.511993	7.047564	9.357816
D:	4836.41	-2033	230	-16587	-39	86	-2249	2513	556	-5055	179.210861	6.987197	8.879157
D:	4839.97	-1703	445	-16361	108	88	-1597	2513	556	-5055	178.447266	5.940454	7.876755
D:	4843.55	-1537	447	-16418	114	83	-1450	2513	556	-5055	178.445694	5.346446	8.004123
D:	4847.95	-1342	623	-16371	53	67	-1749	2513	556	-5055	177.825897	4.683062	6.796900
D:	4852.55	-1802	413	-16498	-18	139	-2368	2513	556	-5055	178.571259	6.231689	10.377554
D:	4857.31	-2139	-47	-16526	22	60	-1486	2516	562	-5087	-179.842346	5.956432	8.343213
D:	4861.87	-1697	375	-16261	-57	134	-1473	2516	562	-5087	178.684189	5.041355	7.836808
D:	4866.39	-1493	516	-16917	-81	116	-1983	2516	562	-5087	178.258179	4.599356	7.771245
D:	4870.95	-1123	1017	-16521	-105	146	-2826	2516	562	-5087	176.482651	3.881437	4.970170
D:	4875.22	-2326	-273	-16286	-107	169	-3795	2510	591	-4951	176.482651	8.127246	11.953616
D:	4878.91	-2326	-273	-16286	45	124	-3163	2510	591	-4951	-179.044937	9.285586	12.373642
D:	4882.63	-2665	-419	-16295	2	75	-2313	2510	591	-4951	-178.532333	5.780122	8.307079
D:	4886.18	-1673	511	-16520	-59	201	-2157	2510	591	-4951	178.233536	3.289712	6.666256
D:	4889.82	-951	882	-16522	-4	153	-3166	2510	591	-4951	176.949478	5.114019	7.507138
D:	4893.40	-1480	677	-16524	-4	124	-3896	2510	591	-4951	177.659103	5.114019	13.528282
D:	4897.10	-2591	-632	-16369	-80	124	-3896	2510	591	-4951	-177.794174	6.605280	10.684779
D:	4901.77	-1912	169	-16500	19	96	-1880	2500	627	-4953	179.418457	4.461847	6.346158
D:	4906.18	-1284	1015	-16424	-15	160	-2272	2500	627	-4953	176.468826	6.309591	10.529641
D:	4910.43	-1838	214	-16622	-135	194	-3253	2500	627	-4953	179.267670	6.931811	10.636798
D:	4914.83	-1999	161	-16442	-33	95	-3267	2500	627	-4953	179.444275	7.414366	11.260986
D:	4919.17	-1899	448	-16383	-6	49	-2729	2495	644	-4949	178.438873	6.609555	9.465662
D:	4923.43	-1190	1235	-16331	-63	105	-2346	2495	644	-4949	175.680527	4.155935	5.392347
D:	4927.49	-1857	56	-16368	-74	156	-3557	2495	644	-4949	179.809280	6.472859	11.665661
D:	4931.24	-2599	-466	-16622	-14	134	-3486	2495	644	-4949	179.809280	8.883585	13.632817
D:	4934.87	-2599	-466	-16622	48	51	-2190	2495	644	-4949	-178.399399	5.909384	10.035816
D:	4938.42	-1704	380	-16459	-61	61	-1815	2495	628	-5008	178.682663	3.159346	5.985019
D:	4942.08	-914	1112	-16522	-103	120	-2903	2495	628	-5008	176.154739	5.270070	8.324811
D:	4945.73	-1517	645	-16434	-132	72	-3757	2495	628	-5008	177.757645	8.206924	13.859322
D:	4950.21	-2413	-525	-16723	-122	84	-2184	2495	628	-5008	-178.207108	6.410240	7.783702
D:	4955.52	-611	914	-16377	-75	118	-1754	2495	628	-5008	176.810852	2.133370	8.707284
D:	4960.38	-1867	51	-16363	-106	79	-3321	2503	699	-5123	179.826721	6.509396	11.324553
D:	4965.55	-1744	298	-16514	-64	91	-2808	2503	699	-5123	178.971451	5.734091	10.604215
D:	4969.79	-1641	435	-16337	-60	58	-3135	2503	699	-5123	178.480026	7.564261	12.722923
D:	4973.45	-2184	-43	-16447	-60	26	-2789	2503	699	-5123	-179.855515	7.564261	10.214648
D:	4977.00	-1623	509	-16419	-153	26	-2789	2503	699	-5123	178.229614	5.642758	11.021494
D:	4981.01	-1843	348	-16368	-164	65	-2093	2497	698	-4978	178.787292	6.651767	11.202812
D:	4985.75	-1914	304	-16410	-114	60	-1961	2497	698	-4978	178.943985	3.900912	9.997272
D:	4990.31	-1121	655	-16427	-91	155	-2717	2497	698	-4978	177.721878	5.561254	9.114697
D:	4994.67	-1620	738	-16622	-32	205	-2831	2497	698	-4978	177.463028	6.361047	11.423029
D:	4999.65	-2208	-163	-16322	-128	84	-2815	2486	745	-5025	-179.433136	7.703913	14.227518
D:	5004.59	-1896	295	-16477	66	43	-2030	2486	745	-5025	178.979584	6.563277	9.733740
D:	5008.81	-1480	793	-16458	10	130	-1502	2486	745	-5025	177.246674	5.132781	10.090209
D:	5012.60	-1119	1055	-16460	5	-255	-2141	2486	745	-5025	176.337860	3.881329	8.503498
D:	5016.38	-2098	-23	-16261	-93	130	-3208	2486	745	-5025	-179.924255	7.351918	13.165882
D:	5019.96	-2583	-232	-16472	-75	20	-3433	2497	724	-5076	-179.198364	8.911459	13.746725
D:	5023.52	-1854	538	-16466	-8	-45	-2343	2497	724	-5076	178.133865	6.420990	10.360859
D:	5027.11	-1854	538	-16466	-58	142	-2039	2497	724	-5076	178.133865	1.801134	1.888778
D:	5030.57	-519	2051	-16377	-41	58	-3596	2497	724	-5076	172.866730	8.325541	15.655025
D:	5034.25	-2430	-568	-16596	-43	277	-3768	2497	724	-5076	-178.045059	8.810361	15.615341
D:	5037.89	-2583	-598	-16655	-69	204	-2344	2497	724	-5076	-177.948914	4.733482	9.486677
D:	5041.63	-1347	970	-16239	187	128	-2204	2497	774	-4853	176.586838	4.731735	11.030122
D:	5045.30	-1395	733	-16826	4	55	-2990	2489	774	-4853	177.510803	4.735075	14.328338
D:	5048.93	-2231	-79	-16338	-8	55	-2990	2489	774	-4853	-179.728256	7.775946	14.894715
D:	5052.45	-1837	188	-16907	3	214	-2748	2489	774	-4853	179.368210	6.200848	13.498088
D:	5056.01	-1729	286	-16459	-12	145	-2242	2489	774	-4853	179.009796	5.996143	13.013851
D:	5059.64	-2085	123	-16208	-18	181	-2263	2489	774	-4853	179.570496	7.330289	13.424103
D:	5063.18	-2085	123	-16208	12	20	-2113	2480	762	-5140	179.570496	6.017541	12.263249
D:	5067.15	-1576	888	-16522	29	65	-1649	2480	762	-5140	176.928726	5.441196	9.308291
D:	5071.41	-1614	626	-16245	-67	181	-2007	2480	762	-5140	177.798447	5.669911	10.714739
D:	5075.64	-2254	-11	-16444	-94	156	-2731	2480	762	-5140	-179.966980	7.805195	13.637611
D:	5080.68	-1849	345	-16514	19	-17	-2450	2480	762	-5140	178.808472	6.387355	13.712627
D:	5085.67	-1673	263	-16772	9	202	-2074	2482	802	-4988	179.106918	6.608164	13.115560
D:	5090.02	-1901	307	-16407	53	46	-2045	2482	802	-4988	178.933319	6.101779	12.601787
D:	5093.74	-1758	432	-16440	-42	62	-2080	2482	802	-4988	178.500046	5.145622	12.088764
D:	5097.51	-1505	589	-16703	-42	89	-2406	2482	802	-4988	177.985672	4.984876	10.811487
D:	5101.08	-1420	802	-16270	-31	89	-2406	2482	802	-4988	177.183228	4.982104	16.343405
D:	5104.79	-2136	-348	-16339	-137	67	-2956	2475	803	-5020	-178.785141	7.446598	16.343405
D:	5108.50	-2252	-25	-16419	-9	39	-2696	2475	803	-5020	-179.918060	7.810074	14.502647
D:	5112.13	-1701	360	-16399	-37	124	-1596	2475	803	-5020	178.747696	5.920634	13.079656
D:	5115.99	-1405	618	-16604	-26	122	-1243	2475	803	-5020	177.873672	4.833553	12.022027
D:	5119.98	-2183	121	-16297	-139	303	-1699	2475	803	-5020	179.579910	7.629431	14.683890
D:	5123.78	-2117	214	-16576	-76	52	-1563	2479	857	-5044	179.265625	7.277731	14.331761
D:	5127.43	-1643	698	-16474	-203	111	-1152	2479	857	-5044	177.579086	5.690537	12.210693
D:	5130.99	-1371	908	-16179	-108	187	-1199	2479	857	-5044	176.793015	4.836212	11.182114
D:	5136.19	-1385	748	-16428	-102	255	-2187	2479	857	-5044	177.398239	4.814234	14.616396
D:	5141.47	-2293	112	-16404	-57	147	-2360	2479	857	-5044	179.614120	7.334549	14.130291
D:	5146.90	-1454	618	-16885	17	107	-1724	2459	838	-5016	177.909119	4.918577	12.783756
D:	5151.83	-1806	348	-16338	4	213	-2220	2459	838	-5016	178.785065	6.306625	13.707929
D:	5156.55	-2008	264	-16418	-98	57	-2267	2459	838	-5016	179.084045	6.972231	11.846395
D:	5160.93	-1409	767	-16487	2	44	-1818	2459	838	-5016	177.341660	4.879593	12.216003
D:	5164.59	-1534	788	-16256	-35	51	-1987	2469	863	-4929	177.230026	5.384635	11.841505
D:	5168.39	-1732	397	-16507	-46	93	-2677	2469	863	-4929	178.627548	5.988310	14.060291
D:	5172.00	-1913	246	-16467	18	142	-2904	2469	863	-4929	179.149399	6.625909	14.634777
D:	5175.53	-1814	573	-16244	76	30	-2631	2469	863	-4929	177.985001	6.368195	12.915085
D:	5179.19	-1814	359	-16422	-3	48	-2669	2469	863	-4929	177.985001	6.395150	14.106915
D:	5182.97	-1841	359	-16422	55	102	-2497	2459	877	-5049	178.752945	7.830204	15.516461
D:	5186.73	-2229	31	-16209	63	134	-1905	2459	877	-5049	179.895737	7.148287	14.073831
D:	5190.35	-2081	352	-16590	88	112	-1234	2459	877	-5049	178.789780	4.983880	12.718031
D:	5194.17	-1453	738	-16646	90	111	-1499	2459	877	-5049	177.466690	4.037082	10.791649
D:	5197.81	-1158	1102	-16371	15	172	-2575	2459	877	-5049	176.154190	6.476202	16.010969
D:	5201.65	-1844	40	-16245	15	119	-3316	2459	877	-5049	179.864227	8.218190	15.524672
D:	5205.18	-2360	13	-16341	38	119	-3316	2459	877	-4961	179.959732	8.218190	14.822813
D:	5208.83	-1757	464	-16335	52	27	-2135	2458	929	-4961	178.378189	6.136882	14.620909
D:	5212.46	-1933	276	-16546	47	124	-1888	2458	929	-4961	179.049637	6.662699	15.658441
D:	5216.12	-1800	469	-16209	18	67	-1678	2458	929	-4961	178.347900	6.334258	14.698888
D:	5219.93	-1644	635	-16787	-38	78	-1690	2458	929	-4961	177.838959	5.589500	14.177555
D:	5223.91	-1916	349	-16244	-16	134	-1768	2458	929	-4961	178.774475	6.725687	14.802117
D:	5227.56	-1702	458	-16223	-37	77	-1565	2449	907	-5027	178.388138	5.986958	14.475809
D:	5231.26	-1512	824	-16855	7	154	-1870	2449	907	-5027	177.206406	5.120142	12.867706
D:	5235.76	-1800	366	-16163	62	89	-2271	2449	907	-5027	178.708084	6.353159	14.842540
D:	5240.16	-1851	301	-16516	-73	84	-2585	2449	907	-5027	178.961197	6.393770	15.226115
D:	5244.48	-2009	180	-16583	-103	53	-2541	2449	907	-5027	179.383408	6.907417	16.086891
D:	5248.96	-2157	151	-16377	-1	84	-2097	2451	946	-5224	179.477036	7.503094	15.593068
D:	5252.90	-1742	351	-16443	-9	160	-1431	2451	946	-5224	178.782394	6.046268	15.913201
D:	5256.43	-1547	587	-16617	-64	39	-1270	2451	946	-5224	177.982086	5.315619	14.573065
D:	5259.96	-1912	358	-16406	-91	98	-1520	2451	946	-5224	178.755203	6.646047	15.296696
D:	5263.52	-1726	402	-16601	-66	24	-1644	2451	946	-5224	178.618103	5.934143	15.371683
D:	5267.20	-1726	656	-16395	-101	77	-1551	2431	939	-5093	178.618103	5.939511	13.991413
D:	5270.75	-1707	656	-16395	-14	146	-1769	2431	939	-5093	177.713943	4.779274	14.803798
D:	5274.28	-1383	602	-16531	68	156	-2462	2431	939	-5093	177.919662	6.451004	16.133120
D:	5277.82	-1846	238	-16325	-39	121	-2457	2431	939	-5093	179.170044	6.329800	15.156040
D:	5281.50	-1809	421	-16303	-39	181	-2387	2431	939	-5093	178.526016	6.924548	16.523342
D:	5285.41	-2036	134	-16767	-22	146	-2118	2431	939	-5093	179.547394	6.838176	15.352792
D:	5289.22	-1956	462	-16311	4	146	-2118	2450	968	-4901	178.382828	6.835689	13.898225
D:	5292.88	-1631	814	-16413	-57	128	-1724	2450	968	-4901	177.165970	5.668237	13.898225
D:	5296.46	-1521	857	-16408	-61	182	-2116	2450	968	-4901	177.015335	5.289096	13.798090
D:	5300.00	-2356	-72	-16280	-133	139	-2782	2450	968	-4901	-179.751907	8.234694	17.567543
D:	5303.62	-2079	5	-16638	-5	138	-2166	2450	968	-4901	179.988083	7.122684	17.644365
D:	5307.39	-1742	562	-16349	9	199	-1198	2440	955	-5061	178.036469	6.078584	14.747821
D:	5311.00	-1742	562	-16349	29	216	-1119	2440	955	-5061	178.036469	4.936930	13.168976
D:	5314.89	-1411	910	-16310	-30	257	-1835	2440	955	-5061	176.811768	4.884530	13.602198
D:	5319.54	-2538	-508	-16297	-72	180	-2705	2440	955	-5061	-178.219864	8.847838	19.253235
D:	5324.20	-2059	198	-16466	-10	118	-2084	2440	955	-5061	179.316360	7.127287	15.374962
D:	5329.07	-1719	550	-16381	59	78	-763	2437	993	-5224	178.082245	5.987443	16.230040
D:	5333.67	-1837	367	-16341	-63	146	-961	2437	993	-5224	178.718689	5.680180	15.836770
D:	5337.80	-1672	506	-16803	41	20	-1001	2437	993	-5224	178.280396	4.807930	13.020435
D:	5341.44	-1395	1039	-16553	41	202	-2252	2437	993	-5224	176.413574	4.807930	14.436431
D:	5344.98	-1340	796	-16263	-53	202	-2252	2437	993	-5224	177.203094	4.704813	18.307266
D:	5348.94	-2278	-148	-16308	-13	226	-2925	2428	979	-5009	-179.485321	7.951878	16.195650
D:	5353.25	-1850	369	-16300	59	-27	-1917	2428	979	-5009	178.708435	5.298094	15.355172
D:	5357.64	-1533	616	-16522	-179	81	-2393	2428	979	-5009	177.870041	6.232721	18.273651
D:	5361.92	-1793	8	-16418	-66	94	-2373	2428	979	-5009	179.977402	7.527948	17.229885
D:	5366.29	-2161	94	-16353	-4	137	-1711	2428	979	-5265	179.675964	5.815936	15.122400
D:	5370.61	-1677	565	-16455	-34	4	-1415	2421	1024	-5226	178.038712	5.017676	15.391653
D:	5374.90	-1434	726	-16317	30	72	-1943	2421	1024	-5226	177.457611	6.320925	16.067427
D:	5378.76	-1788	506	-16134	-32	163	-2408	2421	1024	-5226	178.208923	6.273140	17.470930
D:	5382.41	-1833	275	-16673	37	75	-2165	2421	1024	-5226	179.060349	6.874057	18.066395
D:	5386.32	-1979	112	-16416	88	127	-1859	2421	1024	-5226	179.614395	7.651149	17.001654
D:	5390.08	-2172	238	-16167	30	69	-1453	2421	1024	-5226	179.161880	6.346434	16.605875
D:	5393.70	-1820	550	-16355	30	118	-1206	2407	1050	-5031	178.079178	5.899033	15.082908
D:	5397.41	-1692	855	-16354	45	170	-1399	2407	1050	-5031	177.012482	5.899033	16.705950
D:	5400.94	-1611	602	-16538	33	170	-1399	2407	1050	-5031	177.920547	5.560248	16.954842
D:	5404.54	-1448	970	-16438	-68	112	-1696	2407	1050	-5031	176.628128	5.025561	14.812387
D:	5408.18	-2052	96	-16311	-40	162	-2311	2407	1050	-5031	179.668091	7.170496	18.310972
D:	5411.90	-2590	-166	-16516	81	87	-2682	2429	1031	-4942	-179.429443	8.912225	18.859432
D:	5416.41	-1869	467	-16418	-43	14	-1407	2429	1031	-4942	178.375946	6.492094	14.893593
D:	5421.58	-1526	874	-16377	-37	250	-1782	2429	1031	-4942	176.950394	3.943469	18.261200
D:	5426.58	-1156	402	-16765	-51	12	-2709	2429	1031	-4942	178.631668	9.491743	20.396008
D:	5431.57	-1965	287	-16555	-31	142	-1739	2424	1053	-4957	179.012100	6.768259	17.902124
D:	5436.64	-1707	711	-16251	239	78	-686	2424	1053	-4957	177.500092	5.990830	14.088053
D:	5440.85	-1412	1131	-16562	-26	217	-840	2424	1053	-4957	176.098602	4.861866	14.088053
D:	5444.41	-1212	898	-16573	-146	149	-1655	2424	1053	-4957	176.903702	4.176670	15.723677
D:	5448.24	-2346	-200	-16590	-51	229	-2962	2424	1053	-4957	-179.314606	8.048517	20.458946
D:	5451.99	-2302	-87	-16558	23	157	-2204	2409	1086	-4898	-179.704269	7.915021	19.968763
D:	5455.66	-1747	467	-16452	-86	143	-958	2409	1086	-4898	178.379333	6.059149	17.987318
D:	5459.18	-1747	467	-16452	-32	118	-488	2409	1086	-4898	178.379333	5.266972	17.256618
D:	5462.70	-1528	674	-16562	3	175	-863	2409	1086	-4898	177.674850	3.064534	13.103724
D:	5466.73	-878	1538	-16328	-66	160	-1823	2409	1086	-4898	174.624115	7.161024	19.701668
D:	5471.15	-2510	-445	-16468	115	146	-2717	2390	1092	-4950	-178.457367	8.663284	21.544912
D:	5475.52	-1921	525	-16287	73	92	-1513	2390	1092	-4950	178.159012	6.723516	17.494316
D:	5479.77	-1560	731	-16499	-54	153	-671	2390	1092	-4950	177.468353	5.396223	17.015316
D:	5484.15	-1304	1169	-16383	-46	271	-1302	2390	1092	-4950	175.923798	4.539487	14.849891
D:	5488.49	-1851	72	-16312	-26	259	-2274	2390	1092	-4950	179.752396	6.474060	19.122492
D:	5492.46	-2350	-108	-16419	-13	133	-2516	2411	1099	-5067	-179.628418	8.145312	20.044785
D:	5495.98	-1888	375	-16534	76	74	-1570	2411	1099	-5067	178.706009	6.512860	18.311903
D:	5499.57	-1637	733	-16442	125	169	-870	2411	1099	-5067	177.452621	5.680314	16.713076
D:	5503.08	-1637	733	-16442	148	64	-992	2411	1099	-5067	177.452621	3.633687	14.487411
D:	5506.62	-1062	1287	-16674	-24	147	-2112	2411	1099	-5067	175.591507	7.805308	19.541983
D:	5510.18	-2221	22	-16203	31	99	-2300	2411	1099	-5067	179.927521	8.650479	21.256481
D:	5513.78	-2490	-275	-16365	31	121	-964	2391	1124	-4927	-179.042572	6.147018	19.224287
D:	5517.48	-1791	371	-16626	31	113	-408	2391	1124	-4927	178.726959	7.112084	18.242146
D:	5521.23	-2021	458	-16192	65	113	-408	2391	1124	-4927	178.385040	7.111959	18.619448
D:	5524.85	-1634	544	-16774	-92	202	-482	2391	1124	-4927	178.147736	5.561038	18.619448
D:	5528.41	-1666	586	-16591	-5	175	-629	2391	1124	-4927	177.982376	5.730804	18.276762
D:	5531.99	-1690	730	-16261	-42	211	-891	2391	1124	-4927	177.434784	5.927675	17.322798
D:	5535.57	-1197	929	-16430	-34	89	-1092	2387	1111	-5003	176.768982	4.160397	16.747663
D:	5539.50	-1913	368	-16219	-7	162	-1947	2387	1111	-5003	178.705490	6.725331	18.623638
D:	5543.27	-2414	-193	-16380	3	93	-2291	2387	1111	-5003	178.705490	8.383283	20.743771
D:	5546.90	-2414	-193	-16380	-18	116	-1627	2387	1111	-5003	-179.330231	6.966968	19.548330
D:	5550.92	-2026	178	-16579	-54	137	-533	2387	1111	-5003	179.390167	6.288309	18.604406
D:	5555.51	-1758	500	-16517	-100	256	-537	2381	1155	-4944	178.271347	6.072866	19.148205
D:	5560.03	-1749	432	-16619	-112	198	-588	2381	1155	-4944	178.516235	6.005913	19.560131
D:	5564.66	-1713	490	-16435	-26	142	-596	2381	1155	-4944	178.297531	5.947935	19.575363
D:	5569.56	-1523	506	-16649	-164	233	-802	2381	1155	-4944	178.264450	5.130419	17.492323
D:	5573.97	-1480	884	-16461	-39	191	-1299	2381	1155	-4944	176.931229	4.654720	17.219601
D:	5577.86	-1349	854	-16547	-76	135	-2093	2375	1130	-5132	177.050781	6.610073	19.574516
D:	5581.49	-1912	258	-16498	-76	176	-2007	2375	1130	-5132	179.109344	7.738841	19.528250
D:	5585.11	-2217	158	-16314	-30	176	-2007	2375	1130	-5132	179.450394	7.738705	19.414066
D:	5588.87	-1864	314	-16694	-11	131	-1183	2375	1130	-5132	178.927719	6.370150	19.477154
D:	5592.65	-1789	528	-16331	-24	170	-881	2375	1130	-5132	178.153458	6.248556	18.608843
D:	5596.50	-1644	685	-16420	-18	168	-963	2372	1138	-4963	177.616409	5.712735	18.025164
D:	5600.08	-1881	526	-16479	-4	311	-1214	2372	1138	-4963	178.177017	6.508765	18.518650
D:	5603.70	-1924	328	-16427	-19	151	-1384	2372	1138	-4963	178.861389	6.679167	19.485415
D:	5607.28	-1713	414	-16692	-123	214	-1371	2372	1138	-4963	178.861389	5.857794	19.477198
D:	5610.82	-1713	414	-16692	-122	179	-1246	2372	1138	-4963	178.584503	6.256672	18.463474
D:	5614.40	-1808	559	-16482	-21	167	-1112	2365	1147	-5157	178.062759	5.572886	18.160049
D:	5618.40	-1579	654	-16170	-98	297	-1680	2365	1147	-5157	177.689163	5.430268	18.688559
D:	5622.67	-1551	581	-16306	-14	285	-1999	2365	1147	-5157	177.964600	7.016353	20.327028
D:	5627.18	-2207	251	-16596	-9	185	-1462	2365	1147	-5157	179.138794	7.574336	19.453613
D:	5631.85	-1936	394	-16476	64	167	-812	2365	1147	-5157	178.635376	6.700065	19.521339
D:	5636.67	-1707	454	-16485	100	76	-682	2359	1154	-4933	178.427719	5.909783	19.439859
D:	5641.32	-1781	460	-16478	-32	84	-784	2359	1154	-4933	178.406219	6.393373	18.168041
D:	5645.74	-1826	667	-16283	-24	106	-941	2359	1154	-4933	177.659531	4.868276	18.071398
D:	5649.58	-1400	825	-16417	-24	154	-1512	2359	1154	-4933	177.128372	4.248569	17.199799
D:	5653.43	-1218	1027	-16364	-20	58	-2417	2359	1154	-4933	176.414047	4.248569	21.288910
D:	5657.00	-1474	158	-16392	-15	58	-2417	2362	1143	-5073	179.453049	5.138240	19.854197
D:	5660.96	-2585	60	-16608	9	38	-3024	2362	1143	-5073	179.798325	8.847184	18.841480
D:	5664.84	-1887	463	-16414	14	27	-1746	2362	1143	-5073	178.389511	6.555703	17.620596
D:	5669.49	-1342	850	-16458	-19	87	-1527	2362	1143	-5073	177.048721	6.603490	20.120306
D:	5674.09	-1915	225	-16541	27	92	-2036	2362	1221	-5118	179.225967	8.013482	21.604836
D:	5679.07	-1909	396	-16802	31	22	-1234	2360	1221	-5118	178.655136	6.480409	20.607464
D:	5684.29	-1897	581	-16302	-51	121	-639	2360	1221	-5118	177.964096	6.633456	19.445326
D:	5688.67	-1731	541	-16424	-33	211	-670	2360	1221	-5118	178.118637	6.013391	20.263870
D:	5692.40	-1625	474	-16661	-156	101	-800	2360	1221	-5118	178.375656	5.568545	20.674982
D:	5696.09	-1563	763	-16337	-125	178	-1011	2360	1221	-5118	177.331253	5.459238	18.299623
D:	5699.92	-1459	779	-16633	-26	174	-1283	2359	1167	-4962	177.323746	5.007680	18.517742
D:	5703.61	-1390	945	-16348	-65	218	-1879	2359	1167	-4962	176.696884	4.852007	17.569534
D:	5707.17	-1390	945	-16348	36	141	-2406	2359	1167	-4962	176.696884	6.865159	19.844463
D:	5710.88	-1959	349	-16268	-190	91	-2406	2359	1167	-4962	178.776276	6.410498	19.488722
D:	5714.82	-2185	103	-16249	17	221	-2236	2359	1167	-4962	179.642120	7.658686	21.693605
D:	5720.03	-2360	-79	-16369	-32	104	-2095	2340	1214	-4903	-179.728790	8.204232	19.983444
D:	5725.18	-1770	592	-16511	-68	49	-928	2340	1214	-4903	177.951797	5.242483	19.337219
D:	5729.91	-1504	789	-16373	-131	105	-1401	2340	1214	-4903	177.246323	4.364116	19.154959
D:	5734.46	-1264	914	-16538	-63	107	-2154	2340	1214	-4903	176.841873	5.880300	20.581732
D:	5738.57	-1703	504	-16528	66	75	-2666	2346	1190	-5006	178.258636	7.614572	20.283901
D:	5742.29	-2174	274	-16260	45	74	-2393	2346	1190	-5006	179.039871	6.864174	21.377081
