Syntax version=4
Wed May 02 08:32:41 2018
Starting process (2533211 clocks per sec)

LogRawData=false
VarHeader=1
D:		imu_acc_x	imu_acc_y	imu_acc_z	imu_gyro_x	imu_gyro_y	imu_gyro_z	imu_mag_x	imu_mag_y	imu_mag_z	imu_status	imu_temp
D:	time(ms)	(0x20000236,3)	(0x20000238,3)	(0x2000023a,3)	(0x2000022a,3)	(0x2000022c,3)	(0x2000022e,3)	(0x20000230,3)	(0x20000232,3)	(0x20000234,3)	(0x20000120,1)	(0x2000023c,3)
D:	0.06	-1731	-338	-16308	-98	27	-39	-1289	-196	-3344	1	50
D:	2.32	-1660	-271	-16152	-98	27	-39	-1301	-203	-3358	0	49
D:	4.09	-1660	-271	-16152	-47	-12	-87	-1301	-203	-3358	1	49
D:	5.70	-2027	-269	-16361	-47	-12	-87	-1301	-203	-3358	3	49
D:	7.27	-2027	-269	-16361	-47	-12	-87	-1301	-203	-3358	2	49
D:	8.88	-2027	-269	-16361	-36	85	-132	-1301	-203	-3358	3	49
D:	10.60	-1757	-159	-16075	-36	85	-132	-1301	-203	-3358	0	49
D:	12.21	-1757	-159	-16075	34	102	-58	-1301	-203	-3358	1	49
D:	13.81	-1576	-331	-16261	34	102	-58	-1301	-203	-3358	0	49
D:	15.38	-1576	-331	-16261	34	102	-58	-1301	-203	-3358	2	49
D:	16.98	-1576	-331	-16261	-82	-8	-151	-1301	-203	-3358	3	49
D:	18.53	-1781	-193	-16290	-82	-8	-151	-1301	-203	-3358	0	49
D:	20.09	-1781	-193	-16290	-31	88	-135	-1301	-203	-3358	1	49
D:	21.92	-1645	-247	-16194	-31	88	-135	-1293	-191	-3346	0	49
D:	23.58	-1645	-247	-16194	-31	88	-135	-1293	-191	-3346	2	49
D:	25.16	-1645	-247	-16194	17	20	-118	-1293	-191	-3346	3	49
D:	26.78	-1683	-339	-16541	17	20	-118	-1293	-191	-3346	2	49
D:	28.40	-1683	-339	-16541	28	7	-46	-1293	-191	-3346	1	49
D:	29.98	-1621	-273	-16456	28	7	-46	-1293	-191	-3346	0	49
D:	31.69	-1621	-273	-16456	28	100	-104	-1293	-191	-3346	2	49
D:	33.36	-1621	-273	-16456	-26	100	-104	-1293	-191	-3346	3	49
D:	35.15	-1377	-357	-16703	-26	100	-104	-1293	-191	-3346	2	49
D:	36.78	-1377	-357	-16703	-130	76	-24	-1293	-191	-3346	3	49
D:	38.41	-1728	-233	-16300	-130	76	-24	-1293	-191	-3346	0	49
D:	39.97	-1728	-233	-16300	-130	89	-137	-1293	-191	-3346	1	49
D:	41.73	-1574	-313	-16317	-105	89	-137	-1293	-191	-3346	3	49
D:	43.28	-1574	-313	-16317	-105	89	-137	-1293	-191	-3346	2	49
D:	44.84	-1574	-313	-16317	-99	69	-56	-1293	-216	-3189	3	49
D:	46.43	-1758	-342	-16512	-99	69	-56	-1293	-216	-3189	0	49
D:	48.09	-1758	-342	-16512	-150	-20	-48	-1293	-216	-3189	1	49
D:	49.68	-1731	-296	-16383	-150	-20	-48	-1293	-216	-3189	3	49
D:	51.25	-1731	-296	-16383	-150	-20	-48	-1293	-216	-3189	2	49
D:	52.84	-1731	-296	-16383	-142	-32	-50	-1293	-216	-3189	3	49
D:	54.38	-1816	-215	-16321	-142	-32	-50	-1293	-216	-3189	0	49
D:	55.98	-1816	-215	-16321	114	22	-85	-1293	-216	-3189	1	49
D:	57.58	-1668	-298	-16436	38	22	-85	-1293	-216	-3189	3	49
D:	59.13	-1668	-298	-16436	38	22	-85	-1293	-216	-3189	2	49
D:	60.78	-1668	-298	-16436	-71	-8	-44	-1293	-216	-3189	3	49
D:	62.35	-1680	-357	-16369	-71	-8	-44	-1293	-216	-3189	0	50
D:	63.98	-1680	-357	-16369	-71	37	-27	-1293	-216	-3189	1	50
D:	65.56	-1813	-139	-16172	-74	37	-27	-1283	-187	-3329	3	50
D:	67.16	-1813	-139	-16172	-74	37	-27	-1283	-187	-3329	2	50
D:	68.78	-1813	-139	-16172	-23	60	-30	-1283	-187	-3329	3	50
D:	70.36	-1526	-360	-16611	-23	60	-30	-1283	-187	-3329	0	50
D:	71.96	-1526	-360	-16611	-23	39	20	-1283	-187	-3329	1	50
D:	73.51	-1526	-360	-16611	-47	39	20	-1283	-187	-3329	3	50
D:	75.10	-1800	-241	-16629	-47	39	20	-1283	-187	-3329	2	50
D:	76.68	-1800	-241	-16629	-80	131	-92	-1283	-187	-3329	1	50
D:	78.26	-1691	-222	-16306	-80	131	-92	-1283	-187	-3329	0	50
D:	79.86	-1691	-222	-16306	-80	6	-17	-1283	-187	-3329	1	50
D:	81.52	-1691	-222	-16306	-41	6	-17	-1283	-187	-3329	3	50
D:	83.23	-1637	-200	-16324	-41	6	-17	-1283	-187	-3329	2	50
D:	84.87	-1637	-200	-16324	-18	23	-108	-1298	-225	-3420	3	50
D:	86.51	-1757	-244	-16199	-18	23	-108	-1298	-225	-3420	0	50
D:	88.08	-1757	-244	-16199	2	34	-72	-1298	-225	-3420	1	50
D:	89.68	-1719	-285	-16396	2	34	-72	-1298	-225	-3420	3	50
D:	91.23	-1719	-285	-16396	2	34	-72	-1298	-225	-3420	2	50
D:	92.78	-1719	-285	-16396	111	143	-74	-1298	-225	-3420	3	50
D:	94.35	-1665	-349	-16145	111	143	-74	-1298	-225	-3420	0	50
D:	96.00	-1665	-349	-16145	111	9	-27	-1298	-225	-3420	1	50
D:	97.56	-1521	-366	-16568	44	9	-27	-1298	-225	-3420	3	50
D:	99.14	-1521	-366	-16568	44	9	-27	-1298	-225	-3420	2	50
D:	100.71	-1521	-366	-16568	-20	17	-122	-1298	-225	-3420	1	50
D:	102.28	-1669	-274	-16486	-20	17	-122	-1298	-225	-3420	0	50
D:	103.86	-1669	-274	-16486	-20	33	-172	-1298	-225	-3420	1	50
D:	105.50	-1669	-274	-16486	-53	33	-172	-1281	-199	-3292	3	50
D:	107.06	-1854	-250	-16207	-53	33	-172	-1281	-199	-3292	2	50
D:	108.61	-1854	-250	-16207	-24	70	-113	-1281	-199	-3292	1	50
D:	110.42	-1540	-363	-16080	-24	70	-113	-1281	-199	-3292	0	50
D:	112.21	-1540	-363	-16080	-68	157	-91	-1281	-199	-3292	1	50
D:	113.84	-1761	-295	-16396	-68	157	-91	-1281	-199	-3292	0	50
D:	115.46	-1761	-295	-16396	-68	157	-91	-1281	-199	-3292	2	50
D:	117.07	-1761	-295	-16396	-8	144	-39	-1281	-199	-3292	3	50
D:	118.68	-1789	-365	-16756	-8	144	-39	-1281	-199	-3292	0	50
D:	120.23	-1789	-365	-16756	7	88	-85	-1281	-199	-3292	1	50
D:	121.83	-1743	-192	-16187	7	88	-85	-1281	-199	-3292	0	50
D:	123.37	-1743	-192	-16187	7	88	-85	-1281	-199	-3292	2	50
D:	124.97	-1743	-192	-16187	24	118	-30	-1290	-196	-3201	3	50
D:	126.51	-1509	-318	-16207	24	118	-30	-1290	-196	-3201	0	50
D:	128.10	-1509	-318	-16207	-54	-31	-111	-1290	-196	-3201	1	50
D:	129.68	-1749	-25	-16171	-54	-31	-111	-1290	-196	-3201	3	50
D:	131.23	-1749	-25	-16171	-54	-31	-111	-1290	-196	-3201	2	50
D:	132.86	-1749	-25	-16171	89	25	-106	-1290	-196	-3201	3	50
D:	134.53	-1802	-183	-16130	89	25	-106	-1290	-196	-3201	0	50
D:	136.14	-1802	-183	-16130	-45	35	-124	-1290	-196	-3201	1	50
D:	137.78	-1952	-307	-16349	-45	35	-124	-1290	-196	-3201	0	50
D:	139.39	-1952	-307	-16349	-45	35	-124	-1290	-196	-3201	2	50
D:	140.98	-1952	-307	-16349	-94	-18	-86	-1290	-196	-3201	3	50
D:	142.57	-1692	-252	-16303	-94	-18	-86	-1290	-196	-3201	0	50
D:	144.15	-1692	-252	-16303	45	93	-35	-1290	-196	-3201	1	50
D:	145.78	-1493	-385	-16413	45	93	-35	-1296	-207	-3333	0	50
D:	147.38	-1493	-385	-16413	45	93	-35	-1296	-207	-3333	2	50
D:	149.03	-1493	-385	-16413	-78	-3	-63	-1296	-207	-3333	3	50
D:	150.68	-1719	-349	-16539	-78	-3	-63	-1296	-207	-3333	0	50
D:	152.27	-1719	-349	-16539	-38	53	-122	-1296	-207	-3333	1	50
D:	153.88	-1686	-348	-16466	-38	53	-122	-1296	-207	-3333	0	50
D:	155.60	-1686	-348	-16466	-38	75	-71	-1296	-207	-3333	2	50
D:	157.21	-1686	-348	-16466	-55	75	-71	-1296	-207	-3333	3	50
D:	158.78	-1670	-318	-16200	-55	75	-71	-1296	-207	-3333	2	50
D:	160.41	-1670	-318	-16200	-69	43	-75	-1296	-207	-3333	1	50
D:	162.04	-1709	-271	-16336	-69	43	-75	-1296	-207	-3333	0	50
D:	163.68	-1709	-271	-16336	-69	56	-48	-1296	-207	-3333	2	50
D:	165.27	-1709	-271	-16336	233	56	-48	-1295	-230	-3274	3	50
D:	166.87	-1688	-306	-16279	233	56	-48	-1295	-230	-3274	2	49
D:	168.54	-1688	-306	-16279	-13	64	-122	-1295	-230	-3274	1	49
D:	170.16	-1780	-295	-16225	-13	64	-122	-1295	-230	-3274	0	49
D:	171.79	-1780	-295	-16225	-13	96	-92	-1295	-230	-3274	1	49
D:	173.37	-1780	-295	-16225	-21	96	-92	-1295	-230	-3274	3	49
D:	174.98	-1662	-367	-16818	-21	96	-92	-1295	-230	-3274	2	49
D:	176.57	-1662	-367	-16818	-45	53	-39	-1295	-230	-3274	1	49
D:	178.12	-1777	-188	-16265	-45	53	-39	-1295	-230	-3274	0	49
D:	179.68	-1777	-188	-16265	-45	98	-8	-1295	-230	-3274	2	49
D:	181.28	-1777	-188	-16265	13	98	-8	-1295	-230	-3274	3	49
D:	182.87	-1702	-333	-16143	13	98	-8	-1295	-230	-3274	2	49
D:	184.52	-1702	-333	-16143	41	126	-90	-1295	-230	-3274	1	49
D:	186.09	-1715	-282	-16327	41	126	-90	-1289	-210	-3423	0	49
D:	187.73	-1715	-282	-16327	41	94	-95	-1289	-210	-3423	1	50
D:	189.38	-1715	-282	-16327	-29	94	-95	-1289	-210	-3423	3	50
D:	190.98	-1734	-341	-16233	-29	94	-95	-1289	-210	-3423	2	50
D:	192.58	-1734	-341	-16233	-33	108	-57	-1289	-210	-3423	1	50
D:	194.18	-1705	-301	-16330	-33	108	-57	-1289	-210	-3423	0	50
D:	195.87	-1705	-301	-16330	-33	-35	-84	-1289	-210	-3423	1	50
D:	197.52	-1705	-301	-16330	6	-35	-84	-1289	-210	-3423	3	50
D:	199.07	-1670	-220	-16171	6	-35	-84	-1289	-210	-3423	2	50
D:	200.70	-1670	-220	-16171	-54	10	-71	-1289	-210	-3423	1	50
D:	202.26	-1614	-340	-16567	-54	10	-71	-1289	-210	-3423	0	50
D:	203.86	-1614	-340	-16567	-54	-7	-115	-1289	-210	-3423	1	50
D:	205.52	-1614	-340	-16567	-171	-7	-115	-1289	-210	-3423	3	50
D:	207.10	-1713	-245	-16256	-171	-7	-115	-1289	-210	-3423	2	50
D:	208.82	-1713	-245	-16256	-59	5	-59	-1295	-201	-3252	3	50
D:	210.42	-1753	-140	-16281	-59	5	-59	-1295	-201	-3252	0	50
D:	212.04	-1753	-140	-16281	13	60	-158	-1295	-201	-3252	1	50
D:	213.60	-1692	-236	-16308	13	60	-158	-1295	-201	-3252	3	50
D:	215.18	-1692	-236	-16308	13	60	-158	-1295	-201	-3252	2	50
D:	216.78	-1692	-236	-16308	-65	54	-16	-1295	-201	-3252	3	50
D:	218.47	-1719	-291	-16367	-65	54	-16	-1295	-201	-3252	0	50
D:	220.06	-1719	-291	-16367	-103	111	-65	-1295	-201	-3252	1	50
D:	221.68	-1722	-309	-16757	-103	111	-65	-1295	-201	-3252	3	50
D:	223.24	-1722	-309	-16757	-103	111	-65	-1295	-201	-3252	2	50
D:	224.86	-1722	-309	-16757	92	116	-118	-1295	-201	-3252	3	50
D:	226.50	-1733	-291	-15925	92	116	-118	-1295	-201	-3252	0	50
D:	228.05	-1733	-291	-15925	105	28	-91	-1295	-201	-3252	1	50
D:	229.60	-1750	-304	-16261	105	28	-91	-1289	-195	-3330	3	50
D:	231.20	-1750	-304	-16261	105	28	-91	-1289	-195	-3330	2	50
D:	232.81	-1750	-304	-16261	111	-3	-98	-1289	-195	-3330	3	50
D:	234.41	-1813	-317	-16127	111	-3	-98	-1289	-195	-3330	0	50
D:	235.97	-1813	-317	-16127	111	3	21	-1289	-195	-3330	1	50
D:	237.56	-1733	-341	-16388	43	3	21	-1289	-195	-3330	3	50
D:	239.15	-1733	-341	-16388	43	3	21	-1289	-195	-3330	2	50
D:	240.78	-1733	-341	-16388	166	61	-18	-1289	-195	-3330	3	50
D:	242.44	-1725	-305	-16374	166	61	-18	-1289	-195	-3330	0	50
D:	244.09	-1725	-305	-16374	-13	91	-64	-1289	-195	-3330	1	50
D:	245.68	-1712	-336	-16149	-13	91	-64	-1289	-195	-3330	3	50
D:	247.23	-1712	-336	-16149	-13	91	-64	-1289	-195	-3330	2	50
D:	248.93	-1712	-336	-16149	14	62	-37	-1296	-232	-3370	3	50
D:	250.69	-1709	-385	-16665	14	62	-37	-1296	-232	-3370	0	50
D:	252.26	-1709	-385	-16665	9	34	-42	-1296	-232	-3370	1	50
D:	254.05	-1820	-307	-16463	9	34	-42	-1296	-232	-3370	0	50
D:	255.68	-1820	-307	-16463	9	-18	-34	-1296	-232	-3370	2	50
D:	257.29	-1820	-307	-16463	-36	-18	-34	-1296	-232	-3370	3	50
D:	259.08	-1730	-259	-16687	-36	-18	-34	-1296	-232	-3370	2	50
D:	260.81	-1730	-259	-16687	51	110	-152	-1296	-232	-3370	3	50
D:	262.42	-1643	-89	-16478	51	110	-152	-1296	-232	-3370	0	50
D:	264.01	-1643	-89	-16478	-205	-18	-132	-1296	-232	-3370	1	50
D:	265.59	-1741	-289	-16378	-56	-18	-132	-1296	-232	-3370	3	50
D:	267.25	-1741	-289	-16378	-56	-18	-132	-1296	-232	-3370	2	49
D:	268.87	-1741	-289	-16378	49	21	-55	-1299	-209	-3269	3	49
D:	270.50	-1576	-345	-16580	49	21	-55	-1299	-209	-3269	0	49
D:	272.07	-1576	-345	-16580	-68	29	-10	-1299	-209	-3269	1	49
D:	273.72	-1785	-261	-16085	-68	29	-10	-1299	-209	-3269	3	49
D:	275.28	-1785	-261	-16085	-68	29	-10	-1299	-209	-3269	2	49
D:	276.88	-1785	-261	-16085	-127	-69	-84	-1299	-209	-3269	3	49
D:	278.49	-1570	-391	-16245	-127	-69	-84	-1299	-209	-3269	0	49
D:	280.05	-1570	-391	-16245	-129	153	-70	-1299	-209	-3269	1	49
D:	281.61	-1834	-329	-16319	-129	153	-70	-1299	-209	-3269	3	49
D:	283.19	-1834	-329	-16319	-129	153	-70	-1299	-209	-3269	2	49
D:	284.78	-1834	-329	-16319	-174	147	39	-1299	-209	-3269	3	49
D:	286.37	-1698	-363	-16325	-174	147	39	-1299	-209	-3269	0	49
D:	287.96	-1698	-363	-16325	-174	46	-102	-1299	-209	-3269	1	49
D:	289.52	-1698	-356	-16243	-120	46	-102	-1280	-205	-3339	3	49
D:	291.09	-1603	-356	-16243	-120	46	-102	-1280	-205	-3339	2	49
D:	292.68	-1603	-356	-16243	-187	-19	-59	-1280	-205	-3339	1	49
D:	294.21	-1598	-218	-16310	-187	-19	-59	-1280	-205	-3339	0	49
D:	295.81	-1598	-218	-16310	-187	-216	-83	-1280	-205	-3339	1	49
D:	297.40	-1598	-218	-16310	-170	-216	-83	-1280	-205	-3339	3	49
D:	299.07	-1480	-242	-16673	-170	-216	-83	-1280	-205	-3339	2	49
D:	300.68	-1480	-242	-16673	-189	153	9	-1280	-205	-3339	1	49
D:	302.23	-1723	-145	-16245	-189	153	9	-1280	-205	-3339	0	49
D:	303.83	-1723	-145	-16245	-189	62	38	-1280	-205	-3339	1	49
D:	305.36	-1723	-145	-16245	-116	62	38	-1280	-205	-3339	3	49
D:	306.97	-1602	-235	-16307	-116	62	38	-1280	-205	-3339	2	49
D:	308.53	-1602	-235	-16307	-215	22	-75	-1280	-205	-3339	1	49
D:	310.06	-1824	-277	-16204	-215	22	-75	-1288	-189	-3415	0	49
D:	311.60	-1824	-277	-16204	-215	12	-100	-1288	-189	-3415	2	50
D:	313.19	-1824	-277	-16204	-142	12	-100	-1288	-189	-3415	3	50
D:	314.78	-1672	-326	-16241	-142	12	-100	-1288	-189	-3415	2	50
D:	316.40	-1672	-326	-16241	-159	-41	-17	-1288	-189	-3415	1	50
D:	318.07	-1737	-187	-16294	-159	-41	-17	-1288	-189	-3415	0	50
D:	319.68	-1737	-187	-16294	-159	-30	0	-1288	-189	-3415	2	50
D:	321.20	-1737	-187	-16294	-111	-30	0	-1288	-189	-3415	3	50
D:	322.78	-1665	-224	-16359	-111	-30	0	-1288	-189	-3415	2	50
D:	324.33	-1665	-224	-16359	-168	-86	-49	-1288	-189	-3415	1	50
D:	326.02	-1649	-253	-16516	-168	-86	-49	-1288	-189	-3415	0	50
D:	327.56	-1649	-253	-16516	-168	-86	-49	-1288	-189	-3415	2	50
D:	329.11	-1649	-253	-16516	-187	34	-104	-1297	-222	-3365	3	50
D:	330.68	-1738	-197	-16220	-187	34	-104	-1297	-222	-3365	0	50
D:	332.24	-1738	-197	-16220	-147	35	-100	-1297	-222	-3365	1	50
D:	333.86	-1635	-336	-16258	-147	35	-100	-1297	-222	-3365	0	50
D:	335.61	-1635	-336	-16258	-147	-22	-60	-1297	-222	-3365	2	50
D:	337.21	-1635	-336	-16258	-193	-22	-60	-1297	-222	-3365	3	50
D:	338.78	-1801	-222	-16297	-193	-22	-60	-1297	-222	-3365	2	50
D:	340.36	-1801	-222	-16297	-79	-80	-41	-1297	-222	-3365	1	50
D:	341.97	-1581	-305	-16440	-79	-80	-41	-1297	-222	-3365	0	50
D:	343.53	-1581	-305	-16440	-79	-80	-41	-1297	-222	-3365	2	50
D:	345.05	-1581	-305	-16440	-132	-4	-138	-1297	-222	-3365	3	50
D:	346.60	-1686	-221	-16536	-132	-4	-138	-1297	-222	-3365	0	50
D:	348.18	-1686	-221	-16536	-149	-10	-87	-1297	-222	-3365	1	50
D:	349.79	-1784	-217	-16159	-149	-10	-87	-1297	-220	-3292	0	50
D:	351.36	-1784	-217	-16159	-149	-10	-87	-1297	-220	-3292	2	50
D:	352.96	-1784	-217	-16159	-102	71	10	-1288	-220	-3292	3	50
D:	354.53	-1677	-347	-16361	-102	71	10	-1288	-220	-3292	0	50
D:	356.07	-1677	-347	-16361	-93	7	-112	-1288	-220	-3292	1	50
D:	357.61	-1790	-291	-16203	-93	7	-112	-1288	-220	-3292	3	50
D:	359.15	-1790	-291	-16203	-93	7	-112	-1288	-220	-3292	2	50
D:	360.68	-1790	-291	-16203	39	68	-134	-1288	-220	-3292	1	50
D:	362.23	-1717	-78	-16276	39	68	-134	-1288	-220	-3292	0	50
D:	363.80	-1717	-78	-16276	39	30	-25	-1288	-220	-3292	1	50
D:	365.38	-1717	-78	-16276	15	30	-25	-1288	-220	-3292	3	50
D:	366.96	-1774	-226	-16282	15	30	-25	-1288	-220	-3292	2	50
D:	368.53	-1774	-226	-16282	-7	26	-111	-1288	-220	-3292	1	50
D:	370.10	-1700	-258	-16334	-7	26	-111	-1288	-220	-3292	0	50
D:	371.68	-1700	-258	-16334	-7	79	-72	-1288	-220	-3292	2	50
D:	373.25	-1700	-258	-16334	-8	79	-72	-1285	-216	-3472	3	50
D:	374.84	-1723	-209	-16606	-8	79	-72	-1285	-216	-3472	2	50
D:	376.39	-1723	-209	-16606	18	85	-84	-1285	-216	-3472	1	50
D:	377.98	-1623	-299	-15960	18	85	-84	-1285	-216	-3472	0	50
D:	379.50	-1623	-299	-15960	18	85	-84	-1285	-216	-3472	2	50
D:	381.05	-1623	-299	-15960	-46	66	-80	-1285	-216	-3472	3	50
D:	382.61	-1719	-307	-16392	-46	66	-80	-1285	-216	-3472	0	50
D:	384.17	-1719	-307	-16392	-57	206	-97	-1285	-216	-3472	1	50
D:	385.78	-1768	-135	-16190	-57	206	-97	-1285	-216	-3472	0	50
D:	387.38	-1768	-135	-16190	-57	206	-97	-1285	-216	-3472	2	50
D:	388.96	-1768	-135	-16190	-35	103	-18	-1285	-216	-3472	3	50
D:	390.50	-1650	-259	-16245	-35	103	-18	-1285	-216	-3472	0	48
D:	392.27	-1650	-259	-16245	-76	113	-45	-1285	-216	-3472	1	48
D:	393.84	-1702	-273	-16342	-76	113	-45	-1286	-200	-3280	0	48
D:	395.40	-1702	-273	-16342	-76	113	-45	-1286	-200	-3280	2	48
D:	396.97	-1702	-273	-16342	-83	63	-34	-1286	-200	-3280	3	48
D:	398.56	-1887	-212	-16250	-83	63	-34	-1286	-200	-3280	0	48
D:	400.19	-1887	-212	-16250	-103	-47	-119	-1286	-200	-3280	1	48
D:	401.84	-1861	-257	-16498	-103	-47	-119	-1286	-200	-3280	0	48
D:	403.40	-1861	-257	-16498	-103	-47	-119	-1286	-200	-3280	2	48
D:	404.91	-1861	-257	-16498	-109	49	-88	-1286	-200	-3280	3	48
D:	406.50	-1778	-340	-16365	-109	49	-88	-1286	-200	-3280	0	48
D:	408.08	-1778	-340	-16365	-174	-5	-49	-1286	-200	-3280	1	48
D:	409.68	-1569	-257	-16375	-174	-5	-49	-1286	-200	-3280	3	48
D:	411.27	-1569	-257	-16375	-174	-5	-49	-1286	-200	-3280	2	50
D:	412.84	-1569	-257	-16375	-148	57	-9	-1290	-237	-3372	3	50
D:	414.38	-1696	-248	-16334	-148	57	-9	-1290	-237	-3372	0	50
D:	415.98	-1696	-248	-16334	-148	59	-119	-1290	-237	-3372	1	50
D:	417.54	-1696	-207	-16275	-147	59	-119	-1290	-237	-3372	3	50
D:	419.08	-1776	-207	-16275	-147	59	-119	-1290	-237	-3372	2	50
D:	420.68	-1776	-207	-16275	-240	23	-79	-1290	-237	-3372	1	50
D:	422.17	-1685	-302	-16337	-240	23	-79	-1290	-237	-3372	0	50
D:	423.78	-1685	-302	-16337	-240	31	-71	-1290	-237	-3372	1	50
D:	425.33	-1685	-302	-16337	-246	31	-71	-1290	-237	-3372	3	50
D:	426.98	-1723	-271	-16290	-246	31	-71	-1290	-237	-3372	2	50
D:	428.56	-1723	-271	-16290	-208	-75	-107	-1290	-237	-3372	1	50
D:	430.17	-1748	-254	-16405	-208	-75	-107	-1290	-237	-3372	0	50
D:	431.84	-1748	-254	-16405	-208	56	-97	-1290	-237	-3372	1	50
D:	433.48	-1748	-254	-16405	-95	56	-97	-1284	-197	-3440	3	50
D:	435.08	-2016	-256	-16310	-95	56	-97	-1284	-197	-3440	2	50
D:	436.76	-2016	-256	-16310	-169	56	-51	-1284	-197	-3440	3	50
D:	438.40	-1678	-135	-16250	-169	56	-51	-1284	-197	-3440	0	50
D:	439.98	-1678	-135	-16250	-169	50	-141	-1284	-197	-3440	1	50
D:	441.52	-1678	-135	-16250	-107	50	-141	-1284	-197	-3440	3	50
D:	443.11	-1457	-264	-16700	-107	50	-141	-1284	-197	-3440	2	50
D:	444.69	-1457	-264	-16700	-57	87	-186	-1284	-197	-3440	1	50
D:	446.26	-1804	-185	-16507	-57	87	-186	-1284	-197	-3440	0	50
D:	447.86	-1804	-185	-16507	-57	122	-107	-1284	-197	-3440	1	50
D:	449.46	-1804	-185	-16507	-53	122	-107	-1284	-197	-3440	3	50
D:	451.03	-1714	-204	-16313	-53	122	-107	-1284	-197	-3440	2	50
D:	452.60	-1714	-204	-16313	-6	99	-123	-1291	-219	-3236	1	50
D:	454.20	-1530	-230	-16573	-6	99	-123	-1291	-219	-3236	0	50
D:	455.98	-1530	-230	-16573	-6	-1	-151	-1291	-219	-3236	1	50
D:	457.69	-1654	-267	-16230	-23	-1	-151	-1291	-219	-3236	3	50
D:	459.24	-1654	-267	-16230	-23	-1	-151	-1291	-219	-3236	2	50
D:	460.84	-1654	-267	-16230	-39	-15	-134	-1291	-219	-3236	3	50
D:	462.37	-1654	-240	-16295	-39	-15	-134	-1291	-219	-3236	0	50
D:	463.98	-1654	-240	-16295	217	49	-56	-1291	-219	-3236	1	50
D:	465.68	-1731	-235	-16135	36	49	-56	-1291	-219	-3236	3	50
D:	467.23	-1731	-235	-16135	36	49	-56	-1291	-219	-3236	2	50
D:	468.89	-1731	-235	-16135	38	37	-113	-1291	-219	-3236	3	50
D:	470.49	-1693	-363	-16566	38	37	-113	-1291	-219	-3236	0	50
D:	472.05	-1693	-363	-16566	35	107	-57	-1291	-219	-3236	1	50
D:	473.60	-1630	-332	-16401	35	107	-57	-1284	-198	-3393	3	50
D:	475.15	-1630	-332	-16401	35	107	-57	-1284	-198	-3393	2	50
D:	476.83	-1630	-332	-16401	35	55	-84	-1284	-198	-3393	3	50
D:	478.45	-1784	-313	-16329	35	55	-84	-1284	-198	-3393	0	50
D:	480.00	-1784	-313	-16329	35	80	-104	-1284	-198	-3393	1	50
D:	481.57	-1820	-240	-16650	23	80	-104	-1284	-198	-3393	3	50
D:	483.14	-1820	-240	-16650	23	80	-104	-1284	-198	-3393	2	50
D:	484.68	-1820	-240	-16650	40	9	-53	-1284	-198	-3393	1	50
D:	486.22	-1812	-252	-16192	40	9	-53	-1284	-198	-3393	0	50
D:	487.81	-1812	-252	-16192	40	9	-88	-1284	-198	-3393	1	50
D:	489.41	-1812	-252	-16192	85	9	-88	-1284	-198	-3393	3	50
D:	490.97	-1566	-316	-16566	85	9	-88	-1284	-198	-3393	2	50
D:	492.54	-1566	-316	-16566	41	34	-36	-1284	-198	-3393	1	50
D:	494.10	-1761	-6	-16212	41	34	-36	-1303	-220	-3353	0	50
D:	495.68	-1761	-6	-16212	41	93	-73	-1303	-220	-3353	2	50
D:	497.22	-1761	-6	-16212	127	93	-73	-1303	-220	-3353	3	50
D:	498.88	-1686	-317	-16241	127	93	-73	-1303	-220	-3353	2	50
D:	500.52	-1686	-317	-16241	-61	66	-101	-1303	-220	-3353	1	50
D:	502.05	-1630	-291	-16726	-61	66	-101	-1303	-220	-3353	0	50
D:	503.68	-1630	-291	-16726	-61	-22	-71	-1303	-220	-3353	1	50
D:	505.38	-1630	-291	-16726	-116	-22	-71	-1303	-220	-3353	3	50
D:	506.97	-1746	-199	-16289	-116	-22	-71	-1303	-220	-3353	2	50
D:	508.55	-1746	-199	-16289	-98	-22	-106	-1303	-220	-3353	1	50
D:	510.08	-1691	-299	-16450	-98	-22	-106	-1303	-220	-3353	0	50
D:	511.68	-1691	-299	-16450	-98	36	-174	-1303	-220	-3353	2	50
D:	513.22	-1691	-299	-16450	-53	36	-174	-1303	-174	-3217	3	50
D:	514.81	-1721	-271	-16306	-53	36	-174	-1303	-174	-3217	2	50
D:	516.38	-1721	-271	-16306	-78	-34	-100	-1303	-174	-3217	1	50
D:	517.98	-1700	-259	-16482	-78	-34	-100	-1295	-174	-3217	0	50
D:	519.54	-1700	-259	-16482	-78	-34	-100	-1295	-174	-3217	2	50
D:	521.09	-1700	-259	-16482	-146	88	-105	-1295	-174	-3217	3	50
D:	522.78	-1776	-243	-16137	-146	88	-105	-1295	-174	-3217	2	50
D:	524.35	-1776	-243	-16137	-98	17	-59	-1295	-174	-3217	1	50
D:	525.95	-1692	-441	-16289	-98	17	-59	-1295	-174	-3217	0	50
D:	527.53	-1692	-441	-16289	-98	17	-59	-1295	-174	-3217	2	50
D:	529.10	-1692	-441	-16289	-71	59	-22	-1295	-174	-3217	3	50
D:	530.68	-1646	-232	-16671	-71	59	-22	-1295	-174	-3217	0	50
D:	532.23	-1646	-232	-16671	9	44	30	-1295	-174	-3217	1	50
D:	533.81	-1674	-285	-16167	9	44	30	-1295	-174	-3217	0	50
D:	535.37	-1674	-285	-16167	9	44	30	-1295	-174	-3217	2	49
D:	537.01	-1674	-285	-16167	32	95	-77	-1293	-209	-3395	3	49
D:	538.54	-1642	-282	-16311	32	95	-77	-1293	-209	-3395	0	49
D:	540.08	-1642	-282	-16311	-64	233	-39	-1293	-209	-3395	1	49
D:	541.68	-1709	-234	-16269	-64	233	-39	-1293	-209	-3395	3	49
D:	543.23	-1709	-234	-16269	-64	233	-39	-1293	-209	-3395	2	49
D:	544.83	-1709	-234	-16269	-53	70	-40	-1293	-209	-3395	3	49
D:	546.39	-1590	-279	-16442	-53	70	-40	-1293	-209	-3395	0	49
D:	547.97	-1590	-279	-16442	203	-47	-76	-1293	-209	-3395	1	49
D:	549.53	-1582	-230	-16473	26	-47	-76	-1293	-209	-3395	3	49
D:	551.25	-1582	-230	-16473	26	-47	-76	-1293	-209	-3395	2	49
D:	552.84	-1582	-230	-16473	9	43	-150	-1293	-209	-3395	3	49
D:	554.40	-1639	-158	-16271	9	43	-150	-1293	-209	-3395	0	50
D:	555.97	-1639	-158	-16271	9	91	-59	-1293	-209	-3395	1	50
D:	557.51	-1639	-275	-16396	0	91	-59	-1297	-206	-3208	3	50
D:	559.10	-1744	-275	-16396	0	91	-59	-1297	-206	-3208	2	50
D:	560.68	-1744	-275	-16396	-66	-11	-109	-1297	-206	-3208	1	50
D:	562.30	-1776	-199	-16298	-66	-11	-109	-1297	-206	-3208	0	50
D:	564.08	-1776	-199	-16298	-29	178	-112	-1297	-206	-3208	1	50
D:	565.70	-1635	-270	-16448	-29	178	-112	-1297	-206	-3208	0	50
D:	567.36	-1635	-270	-16448	-29	178	-112	-1297	-206	-3208	2	50
D:	568.98	-1635	-270	-16448	-67	116	-76	-1297	-206	-3208	3	50
D:	570.55	-1680	-328	-16651	-67	116	-76	-1297	-206	-3208	0	50
D:	572.09	-1680	-328	-16651	12	48	-65	-1297	-206	-3208	1	50
D:	573.68	-1694	-203	-16170	12	48	-65	-1297	-206	-3208	3	50
D:	575.23	-1694	-203	-16170	12	48	-65	-1297	-206	-3208	2	48
D:	576.84	-1694	-203	-16170	-5	146	-61	-1288	-215	-3412	3	48
D:	578.42	-1632	-331	-16489	-5	146	-61	-1288	-215	-3412	0	48
D:	580.00	-1632	-331	-16489	251	94	-39	-1288	-215	-3412	1	48
D:	581.53	-1632	-331	-16489	110	94	-39	-1288	-215	-3412	3	48
D:	583.07	-1778	-307	-16452	110	94	-39	-1288	-215	-3412	2	48
D:	584.82	-1778	-307	-16452	11	110	-49	-1288	-215	-3412	3	48
D:	586.39	-1596	-329	-16303	11	110	-49	-1288	-215	-3412	0	48
D:	587.96	-1596	-329	-16303	11	107	-97	-1288	-215	-3412	1	48
D:	589.51	-1596	-329	-16303	25	107	-97	-1288	-215	-3412	3	48
D:	591.05	-1604	-317	-16313	25	107	-97	-1288	-215	-3412	2	48
D:	592.60	-1604	-317	-16313	51	70	-111	-1288	-215	-3412	1	48
D:	594.18	-1675	-1	-16213	51	70	-111	-1288	-215	-3412	0	48
D:	595.74	-1675	-1	-16213	51	92	-108	-1288	-215	-3412	2	48
D:	597.28	-1675	-1	-16213	58	92	-108	-1296	-188	-3493	3	48
D:	598.84	-1699	-235	-16418	58	92	-108	-1296	-188	-3493	2	50
D:	600.36	-1699	-235	-16418	26	138	-201	-1296	-188	-3493	1	50
D:	601.98	-1755	-220	-16169	26	138	-201	-1296	-188	-3493	0	50
D:	603.51	-1755	-220	-16169	26	138	-201	-1296	-188	-3493	2	50
D:	605.05	-1755	-220	-16169	126	19	-74	-1296	-188	-3493	3	50
D:	606.79	-1624	-287	-16462	126	19	-74	-1296	-188	-3493	2	50
D:	608.36	-1624	-287	-16462	28	34	-64	-1296	-188	-3493	1	50
D:	609.98	-1618	-262	-16265	28	34	-64	-1296	-188	-3493	0	50
D:	611.55	-1618	-262	-16265	28	34	-64	-1296	-188	-3493	2	50
D:	613.09	-1618	-262	-16265	21	43	-15	-1296	-188	-3493	3	50
D:	614.68	-1718	-279	-16277	21	43	-15	-1296	-188	-3493	0	50
D:	616.26	-1718	-279	-16277	-18	43	-92	-1296	-188	-3493	1	50
D:	617.81	-1638	-304	-16218	-18	43	-92	-1301	-209	-3279	0	50
D:	619.35	-1638	-304	-16218	-18	43	-92	-1301	-209	-3279	2	50
D:	620.98	-1638	-304	-16218	-1	47	-106	-1301	-209	-3279	3	50
D:	622.55	-1726	-273	-16311	-1	47	-106	-1301	-209	-3279	0	50
D:	624.10	-1726	-273	-16311	-33	17	-81	-1301	-209	-3279	1	50
D:	625.68	-1656	-269	-16860	-33	17	-81	-1301	-209	-3279	3	50
D:	627.26	-1656	-269	-16860	-33	17	-81	-1301	-209	-3279	2	50
D:	628.84	-1656	-269	-16860	-9	110	-9	-1301	-209	-3279	3	50
D:	630.56	-1576	-216	-16454	-9	110	-9	-1301	-209	-3279	0	50
D:	632.12	-1576	-216	-16454	28	106	-38	-1301	-209	-3279	1	50
D:	633.68	-1671	-238	-16386	28	106	-38	-1301	-209	-3279	3	50
D:	635.36	-1671	-238	-16386	28	106	-38	-1301	-209	-3279	2	50
D:	636.99	-1671	-238	-16386	99	24	-66	-1306	-186	-3129	3	50
D:	638.56	-1733	-315	-16467	99	24	-66	-1306	-186	-3129	0	49
D:	640.12	-1733	-315	-16467	109	52	-33	-1306	-186	-3129	1	49
D:	641.68	-1763	-267	-16316	109	52	-33	-1306	-186	-3129	3	49
D:	643.26	-1763	-267	-16316	109	52	-33	-1306	-186	-3129	2	49
D:	644.86	-1763	-267	-16316	-26	63	13	-1306	-186	-3129	3	49
D:	646.41	-1635	-391	-16462	-26	63	13	-1306	-186	-3129	0	49
D:	648.06	-1635	-391	-16462	-118	-3	37	-1306	-186	-3129	1	49
D:	649.69	-1641	-437	-16585	-118	-3	37	-1306	-186	-3129	3	49
D:	651.23	-1641	-437	-16585	-118	-3	37	-1306	-186	-3129	2	49
D:	652.86	-1641	-437	-16585	-71	94	11	-1306	-186	-3129	3	49
D:	654.38	-1798	-358	-16225	-71	94	11	-1306	-186	-3129	0	49
D:	655.98	-1798	-358	-16225	-71	21	-103	-1306	-186	-3129	1	49
D:	657.55	-1798	-311	-16327	-108	21	-103	-1288	-205	-3369	3	49
D:	659.10	-1648	-311	-16327	-108	21	-103	-1288	-205	-3369	2	50
D:	660.68	-1648	-311	-16327	-219	-1	-60	-1288	-205	-3369	1	50
D:	662.23	-1763	-183	-16295	-219	-1	-60	-1288	-205	-3369	0	50
D:	663.80	-1763	-183	-16295	-219	-26	-75	-1288	-205	-3369	1	50
D:	665.38	-1763	-183	-16295	-166	-26	-75	-1288	-205	-3369	3	50
D:	666.96	-1619	-191	-16303	-166	-26	-75	-1288	-205	-3369	2	50
D:	668.53	-1619	-191	-16303	-132	91	-114	-1288	-205	-3369	1	50
D:	670.08	-1767	-217	-16408	-132	91	-114	-1288	-205	-3369	0	50
D:	671.68	-1767	-217	-16408	-132	60	-74	-1288	-205	-3369	2	50
D:	673.23	-1767	-217	-16408	-87	60	-74	-1288	-205	-3369	3	50
D:	674.84	-1651	-185	-16350	-87	60	-74	-1288	-205	-3369	2	50
D:	676.39	-1651	-185	-16350	-208	126	-62	-1288	-205	-3369	1	50
D:	677.98	-1576	-338	-16400	-208	126	-62	-1288	-166	-3131	0	50
D:	679.53	-1576	-338	-16400	-208	126	-62	-1288	-166	-3131	2	49
D:	681.10	-1576	-338	-16400	-191	121	-62	-1299	-166	-3131	3	49
D:	682.68	-1800	-239	-16242	-191	121	-62	-1299	-166	-3131	0	49
D:	684.30	-1800	-239	-16242	-140	-10	-29	-1299	-166	-3131	1	49
D:	686.10	-1724	-267	-16482	-140	-10	-29	-1299	-166	-3131	0	49
D:	687.68	-1724	-267	-16482	-140	50	-106	-1299	-166	-3131	2	49
D:	689.33	-1724	-267	-16482	-36	50	-106	-1299	-166	-3131	3	49
D:	690.96	-1771	-151	-16159	-36	50	-106	-1299	-166	-3131	2	49
D:	692.52	-1771	-151	-16159	-109	41	-82	-1299	-166	-3131	1	49
D:	694.08	-1736	-259	-16377	-109	41	-82	-1299	-166	-3131	0	49
D:	695.60	-1736	-259	-16377	-109	-85	-107	-1299	-166	-3131	2	49
D:	697.20	-1736	-259	-16377	-83	-85	-107	-1299	-166	-3131	3	49
D:	698.78	-1921	-341	-16357	-83	-85	-107	-1299	-166	-3131	2	50
D:	700.40	-1921	-341	-16357	-168	21	-29	-1299	-166	-3131	1	50
D:	701.97	-1799	-147	-16025	-168	21	-29	-1299	-220	-3407	0	50
D:	703.53	-1799	-147	-16025	-168	21	-29	-1299	-220	-3407	2	50
D:	705.05	-1799	-147	-16025	-87	-19	-177	-1299	-220	-3407	3	50
D:	706.59	-1672	-304	-16412	-87	-19	-177	-1299	-220	-3407	0	50
D:	708.18	-1672	-304	-16412	-63	41	-85	-1299	-220	-3407	1	50
D:	709.78	-1845	-199	-16321	-63	41	-85	-1299	-220	-3407	0	50
D:	711.40	-1845	-199	-16321	-63	41	-85	-1299	-220	-3407	2	50
D:	712.97	-1845	-199	-16321	-48	39	-45	-1299	-220	-3407	3	50
D:	714.51	-1613	-269	-16218	-48	39	-45	-1299	-220	-3407	0	50
D:	716.05	-1613	-269	-16218	-33	9	-70	-1299	-220	-3407	1	50
D:	717.60	-1673	-292	-16294	-33	9	-70	-1299	-220	-3407	3	50
D:	719.16	-1673	-292	-16294	-33	9	-70	-1299	-220	-3407	2	50
D:	720.78	-1673	-292	-16294	-30	28	-57	-1303	-180	-3284	3	50
D:	722.38	-1799	-248	-16460	-30	28	-57	-1303	-180	-3284	0	50
D:	723.96	-1799	-248	-16460	-30	16	-73	-1303	-180	-3284	1	50
D:	725.53	-1799	-248	-16460	-40	16	-73	-1303	-180	-3284	3	50
D:	727.05	-1830	-452	-16211	-40	16	-73	-1303	-180	-3284	2	50
D:	728.68	-1830	-452	-16211	-115	16	-84	-1303	-180	-3284	3	50
D:	730.38	-1798	-224	-16306	-115	16	-84	-1303	-180	-3284	0	50
D:	731.97	-1798	-224	-16306	-115	-21	-68	-1303	-180	-3284	1	50
D:	733.52	-1798	-224	-16306	-108	-21	-68	-1303	-180	-3284	3	50
D:	735.08	-1666	-316	-16790	-108	-21	-68	-1303	-180	-3284	2	50
D:	736.68	-1666	-316	-16790	-168	34	-3	-1303	-180	-3284	1	50
D:	738.22	-1758	-241	-16416	-168	34	-3	-1303	-180	-3284	0	50
D:	739.84	-1758	-241	-16416	-168	44	-60	-1303	-180	-3284	1	50
D:	741.38	-1758	-241	-16416	-218	44	-60	-1303	-226	-3329	3	50
D:	742.97	-1707	-237	-16456	-218	44	-60	-1303	-226	-3329	2	50
D:	744.53	-1707	-237	-16456	-155	67	-114	-1303	-226	-3329	1	50
D:	746.08	-1547	-285	-16585	-155	67	-114	-1303	-226	-3329	0	50
D:	747.72	-1547	-285	-16585	-155	2	-2	-1303	-226	-3329	2	50
D:	749.30	-1547	-285	-16585	-173	2	-2	-1303	-226	-3329	3	50
D:	750.87	-1726	-294	-16397	-173	2	-2	-1303	-226	-3329	2	50
D:	752.50	-1726	-294	-16397	-160	-27	28	-1303	-226	-3329	1	50
D:	754.05	-1734	-244	-16354	-160	-27	28	-1303	-226	-3329	0	50
D:	755.61	-1734	-244	-16354	-160	-27	28	-1303	-226	-3329	2	50
D:	757.14	-1734	-244	-16354	-155	81	-61	-1303	-226	-3329	3	50
D:	758.70	-1678	-192	-16205	-155	81	-61	-1303	-226	-3329	0	50
D:	760.25	-1678	-192	-16205	-66	108	-96	-1303	-226	-3329	1	50
D:	761.84	-1587	-233	-16189	-66	108	-96	-1301	-189	-3305	0	50
D:	763.41	-1587	-233	-16189	-66	108	-96	-1301	-189	-3305	2	50
D:	764.96	-1587	-233	-16189	24	125	-80	-1301	-189	-3305	3	50
D:	766.51	-1530	-325	-16130	24	125	-80	-1301	-189	-3305	0	50
D:	768.07	-1530	-325	-16130	-60	13	-95	-1301	-189	-3305	1	50
D:	769.61	-1747	-261	-16265	-60	13	-95	-1301	-189	-3305	3	50
D:	771.18	-1747	-261	-16265	-60	13	-95	-1301	-189	-3305	2	50
D:	772.78	-1747	-261	-16265	-60	-20	-181	-1301	-189	-3305	3	50
D:	774.52	-1495	-330	-16667	-60	-20	-181	-1301	-189	-3305	0	50
D:	776.05	-1495	-330	-16667	3	25	-183	-1301	-189	-3305	1	50
D:	777.56	-1741	-238	-16327	3	25	-183	-1301	-189	-3305	3	50
D:	779.12	-1741	-238	-16327	3	25	-183	-1301	-189	-3305	2	50
D:	780.82	-1741	-238	-16327	92	10	-117	-1313	-205	-3353	3	50
D:	782.53	-1734	-253	-16136	92	10	-117	-1313	-205	-3353	0	49
D:	784.12	-1734	-253	-16136	4	117	-39	-1313	-205	-3353	1	49
D:	785.68	-1781	-268	-16330	4	117	-39	-1313	-205	-3353	3	49
D:	787.23	-1781	-268	-16330	4	117	-39	-1313	-205	-3353	2	49
D:	788.81	-1781	-268	-16330	-117	-42	-154	-1313	-205	-3353	3	49
D:	790.36	-1859	-149	-16486	-117	-42	-154	-1313	-205	-3353	0	49
D:	792.12	-1859	-149	-16486	-102	-109	-117	-1313	-205	-3353	1	49
D:	793.78	-1810	-247	-16393	-102	-109	-117	-1313	-205	-3353	0	49
D:	795.40	-1810	-247	-16393	-102	-109	-117	-1313	-205	-3353	2	49
D:	796.98	-1810	-247	-16393	-89	37	-106	-1313	-205	-3353	3	49
D:	798.55	-1867	-208	-16213	-89	37	-106	-1313	-205	-3353	0	49
D:	800.20	-1867	-208	-16213	-227	4	-39	-1313	-205	-3353	1	49
D:	801.86	-1512	-301	-16221	-227	4	-39	-1293	-199	-3344	0	49
D:	803.49	-1512	-301	-16221	-227	4	-39	-1293	-199	-3344	2	49
D:	805.06	-1512	-301	-16221	-125	95	7	-1293	-199	-3344	3	49
D:	806.62	-1632	-305	-16195	-125	95	7	-1293	-199	-3344	0	49
D:	808.18	-1632	-305	-16195	-186	38	-25	-1293	-199	-3344	1	49
D:	809.78	-1579	-358	-16346	-186	38	-25	-1293	-199	-3344	0	49
D:	811.36	-1579	-358	-16346	-186	38	-25	-1293	-199	-3344	2	49
D:	812.95	-1579	-358	-16346	-150	-20	-40	-1293	-199	-3344	3	49
D:	814.50	-1475	-346	-16621	-150	-20	-40	-1293	-199	-3344	0	49
D:	816.07	-1475	-346	-16621	-267	21	-44	-1293	-199	-3344	1	49
D:	817.68	-1881	-203	-16358	-267	21	-44	-1293	-199	-3344	3	49
D:	819.24	-1881	-203	-16358	-267	21	-44	-1293	-199	-3344	2	49
D:	820.83	-1881	-203	-16358	-157	4	-31	-1304	-234	-3328	3	49
D:	822.38	-1596	-237	-16715	-157	4	-31	-1304	-234	-3328	0	50
D:	824.00	-1596	-237	-16715	-157	-11	-138	-1304	-234	-3328	1	50
D:	825.68	-1664	-142	-16227	-217	-11	-138	-1304	-234	-3328	3	50
D:	827.23	-1664	-142	-16227	-217	-11	-138	-1304	-234	-3328	2	50
D:	828.81	-1664	-142	-16227	-240	1	-69	-1304	-234	-3328	3	50
D:	830.40	-2022	-104	-16396	-240	1	-69	-1304	-234	-3328	0	50
D:	831.96	-2022	-104	-16396	-240	-1	-68	-1304	-234	-3328	1	50
D:	833.62	-1868	-245	-16469	-140	-1	-68	-1304	-234	-3328	3	50
D:	835.18	-1868	-245	-16469	-140	-1	-68	-1304	-234	-3328	2	50
D:	836.78	-1868	-245	-16469	-147	-119	-134	-1304	-234	-3328	3	50
D:	838.39	-1773	-181	-16391	-147	-119	-134	-1304	-234	-3328	0	50
D:	839.97	-1773	-181	-16391	-147	-18	-129	-1304	-234	-3328	1	50
D:	841.52	-1773	-181	-16391	-187	-18	-129	-1304	-234	-3203	3	50
D:	843.05	-1690	-158	-16307	-187	-18	-129	-1304	-234	-3203	2	50
D:	844.61	-1690	-158	-16307	-132	-77	-112	-1299	-222	-3203	1	50
D:	846.18	-1766	-135	-16546	-132	-77	-112	-1299	-222	-3203	0	50
D:	847.78	-1766	-135	-16546	-132	-1	-70	-1299	-222	-3203	1	50
D:	849.37	-1766	-135	-16546	-84	-1	-70	-1299	-222	-3203	3	50
D:	850.98	-1696	-247	-16295	-84	-1	-70	-1299	-222	-3203	2	50
D:	852.61	-1696	-247	-16295	-38	-22	-125	-1299	-222	-3203	1	50
D:	854.20	-1613	-251	-16151	-38	-22	-125	-1299	-222	-3203	0	50
D:	856.00	-1613	-251	-16151	-38	-137	-111	-1299	-222	-3203	1	50
D:	857.58	-1848	-230	-16299	-75	-137	-111	-1299	-222	-3203	3	50
D:	859.15	-1848	-230	-16299	-75	-137	-111	-1299	-222	-3203	2	50
D:	860.78	-1848	-230	-16299	-32	-41	-33	-1299	-222	-3203	3	50
D:	862.40	-1678	-234	-16245	-32	-41	-33	-1299	-222	-3203	0	50
D:	864.09	-1678	-234	-16245	-33	6	-36	-1299	-222	-3203	1	50
D:	865.68	-1557	-289	-16159	-33	6	-36	-1311	-236	-3375	3	50
D:	867.24	-1557	-289	-16159	-33	6	-36	-1311	-236	-3375	2	50
D:	868.83	-1557	-289	-16159	-109	14	-85	-1311	-236	-3375	3	50
D:	870.40	-1650	-326	-16261	-109	14	-85	-1311	-236	-3375	0	50
D:	871.97	-1650	-326	-16261	-109	35	-29	-1311	-236	-3375	1	50
D:	873.53	-1650	-273	-16398	-19	35	-29	-1311	-236	-3375	3	50
D:	875.09	-1633	-273	-16398	-19	35	-29	-1311	-236	-3375	2	50
D:	876.68	-1633	-273	-16398	-10	34	-38	-1311	-236	-3375	1	50
D:	878.22	-1863	-310	-16346	-10	34	-38	-1311	-236	-3375	0	50
D:	879.86	-1863	-310	-16346	-10	84	-103	-1311	-236	-3375	1	50
D:	881.50	-1863	-310	-16346	-8	84	-103	-1311	-236	-3375	3	50
D:	883.08	-1593	-291	-16396	-8	84	-103	-1311	-236	-3375	2	50
D:	884.68	-1593	-291	-16396	-115	70	-77	-1293	-210	-3331	1	50
D:	886.22	-1743	-286	-16317	-115	70	-77	-1293	-210	-3331	0	50
D:	887.83	-1743	-286	-16317	-115	50	-78	-1293	-210	-3331	1	50
D:	889.38	-1743	-286	-16317	-37	50	-78	-1293	-210	-3331	3	50
D:	890.96	-1665	-208	-16416	-37	50	-78	-1293	-210	-3331	2	50
D:	892.51	-1665	-208	-16416	-15	29	-126	-1293	-210	-3331	1	50
D:	894.06	-1761	-275	-16450	-15	29	-126	-1293	-210	-3331	0	50
D:	895.70	-1761	-275	-16450	-15	37	-31	-1293	-210	-3331	1	50
D:	897.41	-1761	-275	-16450	-7	37	-31	-1293	-210	-3331	3	50
D:	898.96	-1744	-211	-16450	-7	37	-31	-1293	-210	-3331	2	50
D:	900.54	-1744	-211	-16450	-33	125	-55	-1293	-210	-3331	1	50
D:	902.08	-1582	-228	-16383	-33	125	-55	-1293	-210	-3331	0	50
D:	903.68	-1582	-228	-16383	-33	11	-113	-1293	-210	-3331	2	50
D:	905.24	-1582	-228	-16383	-48	11	-113	-1305	-226	-3321	3	50
D:	906.87	-1842	-175	-16765	-48	11	-113	-1305	-226	-3321	2	50
D:	908.43	-1842	-175	-16765	-13	41	-60	-1305	-226	-3321	1	50
D:	910.08	-1771	-213	-16361	-13	41	-60	-1305	-226	-3321	0	50
D:	911.68	-1771	-213	-16361	-13	102	-6	-1305	-226	-3321	2	50
D:	913.23	-1771	-213	-16361	-43	102	-6	-1305	-226	-3321	3	50
D:	914.81	-1692	-234	-16819	-43	102	-6	-1305	-226	-3321	2	50
D:	916.41	-1692	-234	-16819	44	40	-66	-1305	-226	-3321	1	50
D:	917.95	-1715	-201	-16552	44	40	-66	-1305	-226	-3321	0	50
D:	919.50	-1715	-201	-16552	44	40	-66	-1305	-226	-3321	2	50
D:	921.05	-1715	-201	-16552	15	41	-102	-1305	-226	-3321	3	50
D:	922.68	-1731	-219	-16394	15	41	-102	-1305	-226	-3321	0	50
D:	924.22	-1731	-219	-16394	28	-14	-157	-1305	-226	-3321	1	50
D:	925.83	-1429	-241	-16508	28	-14	-157	-1290	-211	-3310	0	50
D:	927.41	-1429	-241	-16508	28	-14	-157	-1290	-211	-3310	2	50
D:	928.98	-1429	-241	-16508	-7	24	-38	-1290	-211	-3310	3	50
D:	930.53	-1713	-126	-16085	-7	24	-38	-1290	-211	-3310	0	50
D:	932.09	-1713	-126	-16085	62	101	-99	-1290	-211	-3310	1	50
D:	933.68	-1567	-202	-16261	62	101	-99	-1290	-211	-3310	3	50
D:	935.21	-1567	-202	-16261	62	101	-99	-1290	-211	-3310	2	50
D:	936.78	-1567	-202	-16261	-16	38	-160	-1290	-211	-3310	3	50
D:	938.34	-1829	-155	-16255	-16	38	-160	-1290	-211	-3310	0	50
D:	940.12	-1829	-155	-16255	9	79	-77	-1290	-211	-3310	1	50
D:	941.68	-1679	-226	-16315	9	79	-77	-1290	-211	-3310	3	50
D:	943.22	-1679	-226	-16315	9	79	-77	-1290	-211	-3310	2	50
D:	944.80	-1679	-226	-16315	-16	-13	-147	-1296	-226	-3283	3	50
D:	946.38	-1768	-278	-16216	-16	-13	-147	-1296	-226	-3283	0	50
D:	947.95	-1768	-278	-16216	-16	32	-129	-1296	-226	-3283	1	50
D:	949.49	-1768	-144	-16211	-68	32	-129	-1296	-226	-3283	3	50
D:	951.20	-1874	-144	-16211	-68	32	-129	-1296	-226	-3283	2	50
D:	952.78	-1874	-144	-16211	-38	68	-73	-1296	-226	-3283	3	50
D:	954.35	-1591	-229	-16347	-38	68	-73	-1296	-226	-3283	0	50
D:	955.98	-1591	-229	-16347	-38	71	-19	-1296	-226	-3283	1	50
D:	957.53	-1591	-229	-16347	-32	71	-19	-1296	-226	-3283	3	50
D:	959.11	-1451	-394	-16489	-32	71	-19	-1296	-226	-3283	2	50
D:	960.68	-1451	-394	-16489	-78	-70	-130	-1296	-226	-3283	1	50
D:	962.23	-1784	-383	-16438	-78	-70	-130	-1296	-226	-3283	0	50
D:	963.86	-1784	-383	-16438	-78	-63	-167	-1296	-226	-3283	1	50
D:	965.37	-1784	-383	-16438	-94	-63	-167	-1285	-214	-3258	3	50
D:	966.98	-1455	-365	-16493	-94	-63	-167	-1285	-214	-3258	2	49
D:	968.55	-1455	-365	-16493	51	-45	-130	-1285	-214	-3258	1	49
D:	970.10	-1749	-271	-16159	51	-45	-130	-1285	-214	-3258	0	49
D:	971.68	-1749	-271	-16159	51	15	-120	-1285	-214	-3258	2	49
D:	973.22	-1749	-271	-16159	-13	15	-120	-1285	-214	-3258	3	49
D:	974.84	-1778	-108	-16382	-13	15	-120	-1285	-214	-3258	2	49
D:	976.41	-1778	-108	-16382	-203	20	-231	-1285	-214	-3258	1	49
D:	977.97	-1942	-158	-16426	-203	20	-231	-1285	-214	-3258	0	49
D:	979.54	-1942	-158	-16426	-203	20	-231	-1285	-214	-3258	2	49
D:	981.08	-1942	-158	-16426	-241	-14	-126	-1285	-214	-3258	3	49
D:	982.68	-1806	-61	-16382	-241	-14	-126	-1285	-214	-3258	0	49
D:	984.25	-1806	-61	-16382	-278	-215	-118	-1285	-214	-3258	1	49
D:	985.86	-1696	-174	-16543	-278	-215	-118	-1293	-226	-3377	0	49
D:	987.38	-1696	-174	-16543	-278	-215	-118	-1293	-226	-3377	2	50
D:	989.11	-1696	-174	-16543	-352	19	-78	-1293	-226	-3377	3	50
D:	990.78	-1871	-163	-16206	-352	19	-78	-1293	-226	-3377	2	50
D:	992.38	-1871	-163	-16206	-160	-31	-13	-1293	-226	-3377	1	50
D:	993.96	-1782	-231	-16279	-160	-31	-13	-1293	-226	-3377	0	50
D:	995.55	-1782	-231	-16279	-160	-31	-13	-1293	-226	-3377	2	50
D:	997.12	-1782	-231	-16279	-166	-31	-33	-1293	-226	-3377	3	50
D:	998.78	-1691	-251	-16299	-166	-31	-33	-1293	-226	-3377	2	50
D:	1000.70	-1691	-251	-16299	-104	-73	-42	-1293	-226	-3377	3	50
D:	1002.52	-1830	-72	-16354	-104	-73	-42	-1293	-226	-3377	2	50
D:	1004.37	-1830	-72	-16354	-71	48	-75	-1293	-226	-3377	1	50
D:	1005.96	-1638	-223	-16393	-71	48	-75	-1293	-226	-3495	0	50
D:	1007.61	-1638	-223	-16393	-71	-45	-9	-1293	-226	-3495	2	50
D:	1009.25	-1638	-223	-16393	-113	-45	-9	-1294	-229	-3495	3	50
D:	1011.03	-1602	-41	-16135	-113	-45	-9	-1294	-229	-3495	2	50
D:	1012.78	-1602	-41	-16135	-29	191	-131	-1294	-229	-3495	3	50
D:	1014.38	-1671	-131	-16389	-29	191	-131	-1294	-229	-3495	0	50
D:	1015.96	-1671	-131	-16389	-29	-35	-96	-1294	-229	-3495	1	50
D:	1017.70	-1749	-205	-16202	-187	-35	-96	-1294	-229	-3495	3	50
D:	1019.25	-1749	-205	-16202	-187	-35	-96	-1294	-229	-3495	2	50
D:	1020.98	-1749	-205	-16202	-94	-3	-12	-1294	-229	-3495	3	50
D:	1022.62	-1677	-200	-16273	-94	-3	-12	-1294	-229	-3495	0	50
D:	1024.18	-1677	-200	-16273	-52	129	-136	-1294	-229	-3495	1	50
D:	1025.78	-1589	-361	-16387	-52	129	-136	-1294	-229	-3495	0	50
D:	1027.32	-1589	-361	-16387	-52	129	-136	-1294	-229	-3495	2	49
D:	1028.95	-1589	-361	-16387	-22	55	-59	-1300	-236	-3341	3	49
D:	1030.49	-1678	-354	-16302	-22	55	-59	-1300	-236	-3341	0	49
D:	1032.05	-1678	-354	-16302	105	217	-82	-1300	-236	-3341	1	49
D:	1033.59	-1602	-233	-16171	105	217	-82	-1300	-236	-3341	3	49
D:	1035.17	-1602	-233	-16171	105	217	-82	-1300	-236	-3341	2	49
D:	1036.78	-1602	-233	-16171	19	104	-103	-1300	-236	-3341	3	49
D:	1038.33	-1820	-251	-16398	19	104	-103	-1300	-236	-3341	0	49
D:	1040.15	-1820	-251	-16398	52	154	-136	-1300	-236	-3341	1	49
D:	1041.78	-1799	-98	-16219	52	154	-136	-1300	-236	-3341	0	49
D:	1043.33	-1799	-98	-16219	52	154	-136	-1300	-236	-3341	2	49
D:	1044.97	-1799	-98	-16219	37	102	-121	-1300	-236	-3341	3	49
D:	1046.52	-1525	-121	-16481	37	102	-121	-1300	-236	-3341	0	49
D:	1048.06	-1525	-121	-16481	29	57	-148	-1300	-236	-3341	1	49
D:	1049.71	-1560	-163	-16218	29	57	-148	-1284	-234	-3299	0	49
D:	1051.44	-1560	-163	-16218	29	57	-148	-1284	-234	-3299	2	49
D:	1052.97	-1560	-163	-16218	10	94	-59	-1284	-234	-3299	3	49
D:	1054.51	-1736	-124	-16319	10	94	-59	-1284	-234	-3299	0	49
D:	1056.05	-1736	-124	-16319	-72	108	-90	-1284	-234	-3299	1	49
D:	1057.60	-1646	-279	-16427	-72	108	-90	-1284	-234	-3299	3	49
D:	1059.17	-1646	-279	-16427	-72	108	-90	-1284	-234	-3299	2	49
D:	1060.78	-1646	-279	-16427	12	113	-98	-1284	-234	-3299	3	49
D:	1062.52	-1721	-219	-16359	12	113	-98	-1284	-234	-3299	0	49
D:	1064.05	-1721	-219	-16359	-37	136	-131	-1284	-234	-3299	1	49
D:	1065.65	-1626	-301	-16199	-37	136	-131	-1284	-234	-3299	3	49
D:	1067.22	-1626	-301	-16199	-37	136	-131	-1284	-234	-3299	2	49
D:	1068.83	-1626	-301	-16199	-127	68	-67	-1285	-238	-3305	3	49
D:	1070.42	-1535	-353	-16557	-127	68	-67	-1285	-238	-3305	0	49
D:	1072.03	-1535	-353	-16557	-52	64	-91	-1285	-238	-3305	1	49
D:	1073.60	-1788	-189	-16303	-52	64	-91	-1285	-238	-3305	3	49
D:	1075.19	-1788	-189	-16303	-52	64	-91	-1285	-238	-3305	2	49
D:	1076.78	-1788	-189	-16303	2	94	-62	-1285	-238	-3305	3	49
D:	1078.34	-1742	-225	-16384	2	94	-62	-1285	-238	-3305	0	49
D:	1079.94	-1742	-225	-16384	2	95	-64	-1285	-238	-3305	1	49
D:	1081.51	-1806	-111	-16303	50	95	-64	-1285	-238	-3305	3	49
D:	1083.32	-1806	-111	-16303	50	95	-64	-1285	-238	-3305	2	49
D:	1084.98	-1806	-111	-16303	72	15	-76	-1285	-238	-3305	3	49
D:	1086.50	-1806	-189	-16302	72	15	-76	-1285	-238	-3305	0	49
D:	1088.07	-1806	-189	-16302	97	48	-47	-1285	-238	-3305	1	49
D:	1089.61	-1668	-307	-16627	97	48	-47	-1293	-196	-3461	3	49
D:	1091.20	-1668	-307	-16627	97	48	-47	-1293	-196	-3461	2	49
D:	1092.96	-1668	-307	-16627	74	32	-25	-1293	-196	-3461	3	49
D:	1094.68	-1809	-261	-16352	74	32	-25	-1293	-196	-3461	0	49
D:	1096.22	-1809	-261	-16352	100	96	-62	-1293	-196	-3461	1	49
D:	1097.83	-1568	-328	-16595	100	96	-62	-1293	-196	-3461	0	49
D:	1099.39	-1568	-328	-16595	100	96	-62	-1293	-196	-3461	2	49
D:	1101.07	-1568	-328	-16595	129	65	-67	-1293	-196	-3461	3	49
D:	1102.68	-1835	-215	-16551	129	65	-67	-1293	-196	-3461	2	49
D:	1104.38	-1835	-215	-16551	149	77	-40	-1293	-196	-3461	1	49
D:	1105.96	-1643	-241	-16383	149	77	-40	-1293	-196	-3461	0	49
D:	1107.48	-1643	-241	-16383	149	77	-40	-1293	-196	-3461	2	49
D:	1109.04	-1643	-241	-16383	141	92	-154	-1290	-236	-3273	3	49
D:	1110.58	-1525	-167	-16141	141	92	-154	-1290	-236	-3273	0	50
D:	1112.10	-1525	-167	-16141	161	128	-124	-1290	-236	-3273	1	50
D:	1113.84	-1673	-91	-16090	161	128	-124	-1290	-236	-3273	0	50
D:	1115.40	-1673	-91	-16090	161	128	-124	-1290	-236	-3273	2	50
D:	1116.94	-1673	-91	-16090	155	9	-110	-1290	-236	-3273	3	50
D:	1118.49	-1768	-277	-16464	155	9	-110	-1290	-236	-3273	0	50
D:	1120.07	-1768	-277	-16464	89	7	-62	-1290	-236	-3273	1	50
D:	1121.68	-1726	-139	-16386	89	7	-62	-1290	-236	-3273	3	50
D:	1123.22	-1726	-139	-16386	89	7	-62	-1290	-236	-3273	2	50
D:	1124.80	-1726	-139	-16386	65	115	-65	-1290	-236	-3273	3	50
D:	1126.39	-1858	-249	-16381	65	115	-65	-1290	-236	-3273	0	50
D:	1128.04	-1858	-249	-16381	213	-8	-72	-1290	-236	-3273	1	50
D:	1129.68	-1691	-164	-16533	213	-8	-72	-1289	-226	-3297	3	50
D:	1131.20	-1691	-164	-16533	213	-8	-72	-1289	-226	-3297	2	50
D:	1132.79	-1691	-164	-16533	37	-9	-43	-1289	-226	-3297	3	50
D:	1134.39	-1774	-175	-16273	37	-9	-43	-1289	-226	-3297	0	50
D:	1135.97	-1774	-175	-16273	37	113	-136	-1289	-226	-3297	1	50
D:	1137.52	-1774	-175	-16273	41	113	-136	-1289	-226	-3297	3	50
D:	1139.07	-1662	-203	-16417	41	113	-136	-1289	-226	-3297	2	50
D:	1140.68	-1662	-203	-16417	0	-11	-93	-1289	-226	-3297	1	50
D:	1142.22	-1688	-266	-16511	0	-11	-93	-1289	-226	-3297	0	50
D:	1143.83	-1688	-266	-16511	0	73	-44	-1289	-226	-3297	1	50
D:	1145.37	-1688	-266	-16511	-36	73	-44	-1289	-226	-3297	3	50
D:	1146.95	-1677	-312	-16156	-36	73	-44	-1289	-226	-3297	2	50
D:	1148.70	-1677	-312	-16156	56	61	-134	-1285	-218	-3375	1	50
D:	1150.28	-1685	-251	-16434	56	61	-134	-1285	-218	-3375	0	49
D:	1151.83	-1685	-251	-16434	56	94	-208	-1285	-218	-3375	1	49
D:	1153.39	-1685	-251	-16434	-52	94	-208	-1285	-218	-3375	3	49
D:	1154.97	-1794	-166	-16457	-52	94	-208	-1285	-218	-3375	2	49
D:	1156.55	-1794	-166	-16457	8	71	-79	-1285	-218	-3375	1	49
D:	1158.12	-1832	-173	-16396	8	71	-79	-1285	-218	-3375	0	49
D:	1159.68	-1832	-173	-16396	8	-37	-68	-1285	-218	-3375	2	49
D:	1161.19	-1832	-173	-16396	-64	-37	-68	-1285	-218	-3375	3	49
D:	1162.84	-1698	-153	-16386	-64	-37	-68	-1285	-218	-3375	2	49
D:	1164.54	-1698	-153	-16386	-102	-50	-81	-1285	-218	-3375	1	49
D:	1166.10	-1859	-189	-16472	-102	-50	-81	-1285	-218	-3375	0	49
D:	1167.68	-1859	-189	-16472	-102	19	19	-1285	-218	-3375	2	49
D:	1169.21	-1859	-189	-16472	-91	19	19	-1285	-218	-3375	3	49
D:	1171.06	-1624	-326	-16388	-91	19	19	-1285	-218	-3375	2	49
D:	1172.68	-1624	-326	-16388	-141	53	-36	-1279	-209	-3511	1	49
D:	1174.25	-1717	-256	-16428	-141	53	-36	-1279	-209	-3511	0	49
D:	1175.84	-1717	-256	-16428	-141	-10	-46	-1279	-209	-3511	1	49
D:	1177.40	-1717	-256	-16428	-149	-10	-46	-1279	-209	-3511	3	49
D:	1178.96	-1694	-268	-16309	-149	-10	-46	-1279	-209	-3511	2	49
D:	1180.53	-1694	-268	-16309	-144	-43	-23	-1279	-209	-3511	1	49
D:	1182.08	-1655	-245	-16459	-144	-43	-23	-1279	-209	-3511	0	49
D:	1183.69	-1655	-245	-16459	-144	0	-85	-1279	-209	-3511	2	49
D:	1185.23	-1655	-245	-16459	-82	0	-85	-1279	-209	-3511	3	49
D:	1186.83	-1614	-282	-16462	-82	0	-85	-1279	-209	-3511	2	49
D:	1188.40	-1614	-282	-16462	-73	-242	-93	-1279	-209	-3511	1	49
D:	1189.97	-1550	-485	-16412	-73	-242	-93	-1279	-209	-3511	0	49
D:	1191.52	-1550	-485	-16412	-73	-242	-93	-1279	-209	-3511	2	49
D:	1193.09	-1550	-485	-16412	-47	16	-69	-1298	-210	-3354	3	49
D:	1194.83	-1583	-285	-16640	-47	16	-69	-1298	-210	-3354	2	49
D:	1196.44	-1583	-285	-16640	5	-3	-90	-1298	-210	-3354	1	49
D:	1198.03	-1780	-267	-16331	5	-3	-90	-1298	-210	-3354	0	49
D:	1199.60	-1780	-267	-16331	5	-31	-86	-1298	-210	-3354	2	49
D:	1201.17	-1780	-267	-16331	15	-31	-86	-1298	-210	-3354	3	49
D:	1202.78	-1583	-289	-16586	15	-31	-86	-1298	-210	-3354	2	49
D:	1204.39	-1583	-289	-16586	-36	-69	-111	-1298	-210	-3354	1	49
D:	1205.96	-1802	-263	-16350	-36	-69	-111	-1298	-210	-3354	0	49
D:	1207.50	-1802	-263	-16350	-36	-69	-111	-1298	-210	-3354	2	49
D:	1209.05	-1802	-263	-16350	-23	67	-158	-1298	-210	-3354	3	49
D:	1210.57	-1626	-269	-16531	-23	67	-158	-1298	-210	-3354	0	49
D:	1212.12	-1626	-269	-16531	16	-41	-101	-1298	-210	-3354	1	49
D:	1213.86	-1741	-278	-16494	16	-41	-101	-1278	-230	-3231	0	49
D:	1215.50	-1741	-278	-16494	16	-41	-101	-1278	-230	-3231	2	49
D:	1217.06	-1741	-278	-16494	24	22	-44	-1278	-230	-3231	3	49
D:	1218.68	-1885	-231	-16301	24	22	-44	-1278	-230	-3231	0	49
D:	1220.23	-1885	-231	-16301	13	76	-78	-1278	-230	-3231	1	49
D:	1221.90	-1788	-262	-16185	13	76	-78	-1278	-230	-3231	0	49
D:	1223.55	-1788	-262	-16185	13	76	-78	-1278	-230	-3231	2	49
D:	1225.12	-1788	-262	-16185	15	-24	-73	-1278	-230	-3231	3	49
D:	1226.68	-1668	-194	-16279	15	-24	-73	-1278	-230	-3231	0	49
D:	1228.24	-1668	-194	-16279	56	26	-85	-1278	-230	-3231	1	49
D:	1229.83	-1446	-245	-16382	56	26	-85	-1278	-230	-3231	0	49
D:	1231.75	-1446	-245	-16382	56	38	-169	-1278	-230	-3231	1	51
D:	1233.38	-1446	-245	-16382	40	38	-169	-1299	-190	-3366	3	51
D:	1234.97	-1746	-269	-16329	40	38	-169	-1299	-190	-3366	2	51
D:	1236.55	-1746	-269	-16329	-12	53	-28	-1299	-190	-3366	1	51
D:	1238.08	-1693	-245	-16202	-12	53	-28	-1299	-190	-3366	0	51
D:	1239.59	-1693	-245	-16202	-12	14	-99	-1299	-190	-3366	2	51
D:	1241.19	-1693	-245	-16202	15	14	-99	-1299	-190	-3366	3	51
D:	1242.77	-1549	-311	-16691	15	14	-99	-1299	-190	-3366	2	51
D:	1244.54	-1549	-311	-16691	-14	75	-34	-1299	-190	-3366	1	51
D:	1246.10	-1742	-256	-16211	-14	75	-34	-1299	-190	-3366	0	51
D:	1247.68	-1742	-256	-16211	-14	-47	-99	-1299	-190	-3366	2	51
D:	1249.23	-1742	-256	-16211	-129	-47	-99	-1299	-190	-3366	3	51
D:	1251.04	-1734	-283	-16337	-129	-47	-99	-1299	-190	-3366	2	51
D:	1252.59	-1734	-283	-16337	-21	-63	-111	-1294	-226	-3222	1	51
D:	1254.17	-1593	-293	-16281	-21	-63	-111	-1294	-226	-3222	0	50
D:	1255.77	-1593	-293	-16281	-21	-77	-94	-1294	-226	-3222	1	50
D:	1257.52	-1765	-125	-16394	-8	-77	-94	-1294	-226	-3222	3	50
D:	1259.15	-1765	-125	-16394	-8	-77	-94	-1294	-226	-3222	2	50
D:	1260.77	-1765	-125	-16394	-3	51	-138	-1294	-226	-3222	3	50
D:	1262.37	-1742	-259	-16507	-3	51	-138	-1294	-226	-3222	0	50
D:	1263.95	-1742	-259	-16507	-3	-17	-81	-1294	-226	-3222	1	50
D:	1265.49	-1742	-259	-16507	-134	-17	-81	-1294	-226	-3222	3	50
D:	1267.06	-1682	-201	-16319	-134	-17	-81	-1294	-226	-3222	2	50
D:	1268.68	-1682	-201	-16319	-206	8	-92	-1294	-226	-3222	3	50
D:	1270.38	-1739	-211	-16255	-206	8	-92	-1294	-226	-3222	0	50
D:	1272.11	-1739	-211	-16255	-182	14	-82	-1294	-226	-3222	1	50
D:	1273.71	-1655	-231	-16377	-182	14	-82	-1303	-220	-3287	0	50
D:	1275.47	-1655	-231	-16377	-182	14	-82	-1303	-220	-3287	2	50
D:	1277.05	-1655	-231	-16377	-121	-41	-22	-1303	-220	-3287	3	50
D:	1278.68	-1666	-255	-16183	-121	-41	-22	-1303	-220	-3287	0	50
D:	1280.23	-1666	-255	-16183	-142	-55	-133	-1303	-220	-3287	1	50
D:	1281.86	-1676	-286	-16674	-142	-55	-133	-1303	-220	-3287	0	50
D:	1283.39	-1676	-286	-16674	-142	-55	-133	-1303	-220	-3287	2	50
D:	1284.95	-1676	-286	-16674	-142	-122	-118	-1303	-220	-3287	3	50
D:	1286.52	-1707	-188	-16163	-142	-122	-118	-1303	-220	-3287	0	50
D:	1288.05	-1707	-188	-16163	-105	-23	-110	-1303	-220	-3287	1	50
D:	1289.58	-1621	-270	-16335	-105	-23	-110	-1303	-220	-3287	3	50
D:	1291.09	-1621	-270	-16335	-105	-23	-110	-1303	-220	-3287	2	50
D:	1292.70	-1621	-270	-16335	-186	-30	-65	-1295	-226	-3387	1	50
D:	1294.22	-1714	-227	-16187	-186	-30	-65	-1295	-226	-3387	0	50
D:	1295.83	-1714	-227	-16187	-186	39	-106	-1295	-226	-3387	1	50
D:	1297.40	-1714	-227	-16187	-78	39	-106	-1295	-226	-3387	3	50
D:	1298.97	-1795	-89	-15986	-78	39	-106	-1295	-226	-3387	2	50
D:	1300.51	-1795	-89	-15986	-132	67	-43	-1295	-226	-3387	1	50
D:	1302.05	-1519	-297	-16454	-132	67	-43	-1295	-226	-3387	0	50
D:	1303.68	-1519	-297	-16454	-132	52	-127	-1295	-226	-3387	2	50
D:	1305.24	-1519	-297	-16454	-141	52	-127	-1295	-226	-3387	3	50
D:	1306.90	-1771	-232	-16275	-141	52	-127	-1295	-226	-3387	2	50
D:	1308.57	-1771	-232	-16275	-164	-71	-149	-1295	-226	-3387	1	50
D:	1310.10	-1696	-200	-16500	-164	-71	-149	-1295	-226	-3387	0	50
D:	1311.69	-1696	-200	-16500	-164	-65	-82	-1295	-226	-3387	1	50
D:	1313.46	-1696	-200	-16500	-160	-65	-82	-1297	-198	-3337	3	50
D:	1315.05	-1768	-157	-16363	-160	-65	-82	-1297	-198	-3337	2	50
D:	1316.69	-1768	-157	-16363	-153	4	-85	-1297	-198	-3337	1	50
D:	1318.24	-1767	-263	-16372	-153	4	-85	-1297	-198	-3337	0	50
D:	1319.80	-1767	-263	-16372	-153	80	-37	-1297	-198	-3337	1	50
D:	1321.39	-1767	-263	-16372	-89	80	-37	-1297	-198	-3337	3	50
D:	1323.15	-1466	-319	-16598	-89	80	-37	-1297	-198	-3337	2	50
D:	1324.77	-1466	-319	-16598	-24	12	-42	-1297	-198	-3337	3	50
D:	1326.34	-1725	-205	-16486	-24	12	-42	-1297	-198	-3337	0	50
D:	1327.96	-1725	-205	-16486	-24	50	-94	-1297	-198	-3337	1	50
D:	1329.69	-1759	-172	-16335	-8	50	-94	-1297	-198	-3337	3	50
D:	1331.24	-1759	-172	-16335	-8	50	-94	-1297	-198	-3337	2	50
D:	1332.84	-1759	-172	-16335	-7	84	-76	-1297	-198	-3337	3	50
D:	1334.44	-1782	-195	-16363	-7	84	-76	-1297	-198	-3337	0	50
D:	1336.06	-1782	-195	-16363	22	62	-125	-1297	-198	-3337	1	50
D:	1337.78	-1781	-166	-16361	22	62	-125	-1293	-212	-3501	0	50
D:	1339.34	-1781	-166	-16361	22	62	-125	-1293	-212	-3501	2	50
D:	1340.97	-1781	-166	-16361	53	29	-33	-1293	-212	-3501	3	50
D:	1342.52	-1692	-197	-16480	53	29	-33	-1293	-212	-3501	0	50
D:	1344.04	-1692	-197	-16480	85	29	-13	-1293	-212	-3501	1	50
D:	1345.58	-1672	-239	-16492	85	29	-13	-1293	-212	-3501	3	50
D:	1347.10	-1672	-239	-16492	85	29	-13	-1293	-212	-3501	2	50
D:	1348.68	-1672	-239	-16492	-47	-7	-71	-1293	-212	-3501	3	50
D:	1350.46	-1732	-189	-16434	-47	-7	-71	-1293	-212	-3501	0	50
D:	1352.05	-1732	-189	-16434	41	35	-76	-1293	-212	-3501	1	50
D:	1353.58	-1657	-339	-16383	41	35	-76	-1293	-212	-3501	3	50
D:	1355.12	-1657	-339	-16383	41	35	-76	-1293	-212	-3501	2	50
D:	1356.68	-1657	-339	-16383	10	57	-79	-1306	-206	-3240	1	50
D:	1358.21	-1585	-253	-16273	10	57	-79	-1306	-206	-3240	0	50
D:	1359.77	-1585	-253	-16273	10	21	3	-1306	-206	-3240	1	50
D:	1361.43	-1585	-253	-16273	-7	21	3	-1306	-206	-3240	3	50
D:	1363.17	-1555	-290	-16468	-7	21	3	-1306	-206	-3240	2	50
D:	1364.83	-1555	-290	-16468	113	132	-64	-1306	-206	-3240	3	50
D:	1366.41	-1670	-312	-16335	113	132	-64	-1306	-206	-3240	0	50
D:	1368.14	-1670	-312	-16335	16	90	23	-1306	-206	-3240	1	50
D:	1369.68	-1693	-286	-16196	16	90	23	-1306	-206	-3240	3	50
D:	1371.18	-1693	-286	-16196	16	90	23	-1306	-206	-3240	2	50
D:	1372.78	-1693	-286	-16196	-24	76	-91	-1306	-206	-3240	3	50
D:	1374.39	-1694	-336	-16490	-24	76	-91	-1306	-206	-3240	0	50
D:	1375.95	-1694	-336	-16490	232	60	-59	-1306	-206	-3240	1	50
D:	1377.52	-1694	-336	-16490	11	60	-59	-1297	-223	-3410	3	50
D:	1379.06	-1719	-278	-16439	11	60	-59	-1297	-223	-3410	2	50
D:	1380.68	-1719	-278	-16439	-7	34	229	-1297	-223	-3410	1	50
D:	1382.22	-1712	-292	-16317	-7	34	229	-1297	-223	-3410	0	50
D:	1384.03	-1712	-292	-16317	66	80	-57	-1297	-223	-3410	1	50
D:	1385.57	-1820	-259	-16374	66	80	-57	-1297	-223	-3410	3	50
D:	1387.12	-1820	-259	-16374	66	80	-57	-1297	-223	-3410	2	50
D:	1388.68	-1820	-259	-16374	34	109	-72	-1297	-223	-3410	1	50
D:	1390.22	-1788	-65	-16405	34	109	-72	-1297	-223	-3410	0	50
D:	1391.78	-1788	-65	-16405	34	73	-46	-1297	-223	-3410	1	50
D:	1393.35	-1788	-65	-16405	36	73	-46	-1297	-223	-3410	3	50
D:	1395.17	-1630	-193	-16710	36	73	-46	-1297	-223	-3410	2	50
D:	1396.71	-1630	-193	-16710	66	82	-26	-1293	-203	-3450	1	50
D:	1398.25	-1746	-324	-16305	66	82	-26	-1293	-203	-3450	0	50
D:	1399.85	-1746	-324	-16305	66	138	-40	-1293	-203	-3450	1	50
D:	1401.38	-1746	-324	-16305	98	138	-40	-1293	-203	-3450	3	50
D:	1402.97	-1595	-236	-16263	98	138	-40	-1293	-203	-3450	2	50
D:	1404.52	-1595	-236	-16263	66	35	18	-1293	-203	-3450	1	50
D:	1406.05	-1684	-233	-16546	66	35	18	-1293	-203	-3450	0	50
D:	1407.60	-1684	-233	-16546	66	40	-99	-1293	-203	-3450	2	50
D:	1409.17	-1684	-233	-16546	30	40	-99	-1293	-203	-3450	3	50
D:	1410.78	-1830	-153	-16327	30	40	-99	-1293	-203	-3450	2	50
D:	1412.34	-1830	-153	-16327	32	5	16	-1293	-203	-3450	1	50
D:	1414.14	-1687	-239	-16507	32	5	16	-1293	-203	-3450	0	50
D:	1415.82	-1687	-239	-16507	32	65	5	-1293	-203	-3450	1	50
D:	1417.53	-1687	-311	-16266	-17	65	5	-1296	-204	-3334	3	50
D:	1419.07	-1676	-311	-16266	-17	65	5	-1296	-204	-3334	2	50
D:	1420.60	-1676	-311	-16266	-39	157	-62	-1296	-204	-3334	1	50
D:	1422.15	-1708	-146	-16325	-39	157	-62	-1296	-204	-3334	0	50
D:	1423.68	-1708	-146	-16325	-39	79	-118	-1296	-204	-3334	2	50
D:	1425.25	-1708	-146	-16325	-19	79	-118	-1296	-204	-3334	3	50
D:	1426.89	-1677	-260	-16698	-19	79	-118	-1296	-204	-3334	2	50
D:	1428.60	-1677	-260	-16698	-83	-24	-111	-1296	-204	-3334	1	50
D:	1430.17	-1737	-268	-16233	-83	-24	-111	-1296	-204	-3334	0	50
D:	1431.80	-1737	-268	-16233	-83	11	-24	-1296	-204	-3334	1	50
D:	1433.51	-1645	-207	-16634	-104	11	-24	-1296	-204	-3334	3	50
D:	1435.12	-1645	-207	-16634	-104	11	-24	-1296	-204	-3334	2	50
D:	1436.68	-1645	-207	-16634	-59	2	-56	-1303	-192	-3330	1	50
D:	1438.20	-1794	-320	-16183	-59	2	-56	-1303	-192	-3330	0	50
D:	1439.79	-1794	-320	-16183	-59	45	-106	-1303	-192	-3330	1	50
D:	1441.44	-1794	-320	-16183	4	45	-106	-1303	-192	-3330	3	50
D:	1443.18	-1564	-209	-16259	4	45	-106	-1303	-192	-3330	2	50
D:	1444.80	-1564	-209	-16259	29	125	-102	-1303	-192	-3330	3	50
D:	1446.36	-1576	-307	-16191	29	125	-102	-1303	-192	-3330	0	50
D:	1448.13	-1576	-307	-16191	-37	83	-127	-1303	-192	-3330	1	50
D:	1449.69	-1763	-307	-16538	-37	83	-127	-1303	-192	-3330	3	50
D:	1451.24	-1763	-307	-16538	-37	83	-127	-1303	-192	-3330	2	50
D:	1452.83	-1763	-307	-16538	117	53	-64	-1303	-192	-3330	3	50
D:	1454.60	-1472	-229	-16520	117	53	-64	-1303	-192	-3330	0	50
D:	1456.22	-1472	-229	-16520	-16	-8	-61	-1303	-192	-3330	1	50
D:	1457.83	-1700	-199	-16216	-16	-8	-61	-1301	-210	-3313	0	50
D:	1459.40	-1700	-199	-16216	-16	-8	-61	-1301	-210	-3313	2	50
D:	1460.98	-1700	-199	-16216	40	60	-62	-1301	-210	-3313	3	50
D:	1462.52	-1741	-288	-16273	40	60	-62	-1301	-210	-3313	0	50
D:	1464.04	-1741	-288	-16273	48	30	-48	-1301	-210	-3313	1	50
D:	1465.55	-1699	-148	-16433	48	30	-48	-1301	-210	-3313	3	50
D:	1467.09	-1699	-148	-16433	48	30	-48	-1301	-210	-3313	2	50
D:	1468.68	-1699	-148	-16433	-13	45	-85	-1301	-210	-3313	1	50
D:	1470.23	-1702	-214	-16357	-13	45	-85	-1301	-210	-3313	0	50
D:	1471.83	-1702	-214	-16357	-13	29	-34	-1301	-210	-3313	1	50
D:	1473.41	-1702	-214	-16357	90	29	-34	-1301	-210	-3313	3	50
D:	1474.97	-1682	-267	-16381	90	29	-34	-1301	-210	-3313	2	50
D:	1476.52	-1682	-267	-16381	-17	-15	-71	-1301	-210	-3203	1	50
D:	1478.21	-1650	-171	-16214	-17	-15	-71	-1301	-207	-3203	0	50
D:	1479.93	-1650	-171	-16214	239	109	-114	-1301	-207	-3203	1	50
D:	1481.48	-1650	-171	-16214	19	109	-114	-1309	-207	-3203	3	50
D:	1483.11	-1681	-229	-16286	19	109	-114	-1309	-207	-3203	2	50
D:	1484.78	-1681	-229	-16286	39	2	-50	-1309	-207	-3203	3	50
D:	1486.40	-1803	-245	-16291	39	2	-50	-1309	-207	-3203	0	50
D:	1487.96	-1803	-245	-16291	-217	57	-101	-1309	-207	-3203	1	50
D:	1489.53	-1718	-406	-16376	-21	57	-101	-1309	-207	-3203	3	50
D:	1491.12	-1718	-406	-16376	-21	57	-101	-1309	-207	-3203	2	50
D:	1492.77	-1718	-406	-16376	-29	90	-131	-1309	-207	-3203	3	50
D:	1494.34	-1742	-326	-16254	-29	90	-131	-1309	-207	-3203	0	50
D:	1495.95	-1742	-326	-16254	-29	42	-70	-1309	-207	-3203	1	50
D:	1497.52	-1742	-326	-16254	-16	42	-70	-1309	-207	-3203	3	50
D:	1499.07	-1761	-208	-16237	-16	42	-70	-1309	-207	-3203	2	50
D:	1500.68	-1761	-208	-16237	-62	-22	-71	-1300	-190	-3222	1	50
D:	1502.23	-1479	-290	-16277	-62	-22	-71	-1300	-190	-3222	0	50
D:	1503.80	-1479	-290	-16277	-62	15	-72	-1300	-190	-3222	1	50
D:	1505.37	-1479	-290	-16277	-65	15	-72	-1300	-190	-3222	3	50
D:	1507.02	-1611	-274	-16555	-65	15	-72	-1300	-190	-3222	2	50
D:	1508.69	-1611	-274	-16555	18	14	-18	-1300	-190	-3222	1	50
D:	1510.25	-1696	-296	-16349	18	14	-18	-1300	-190	-3222	0	50
D:	1511.86	-1696	-296	-16349	18	64	-114	-1300	-190	-3222	1	50
D:	1513.40	-1696	-296	-16349	-111	64	-114	-1300	-190	-3222	3	50
D:	1514.97	-1746	-277	-16696	-111	64	-114	-1300	-190	-3222	2	50
D:	1516.51	-1746	-277	-16696	-3	-26	-104	-1300	-190	-3222	1	50
D:	1518.06	-1746	-272	-16172	-3	-26	-104	-1300	-190	-3222	0	50
D:	1519.61	-1746	-272	-16172	-3	99	-108	-1300	-190	-3222	2	50
D:	1521.24	-1746	-272	-16172	-153	99	-108	-1296	-185	-3277	3	50
D:	1522.83	-1611	-196	-16499	-153	99	-108	-1296	-185	-3277	2	50
D:	1524.41	-1611	-196	-16499	-76	-5	-47	-1296	-185	-3277	1	50
D:	1525.95	-1532	-156	-16420	-76	-5	-47	-1296	-185	-3277	0	50
D:	1527.53	-1532	-156	-16420	-76	-5	-47	-1296	-185	-3277	2	50
D:	1529.07	-1532	-156	-16420	-75	28	49	-1296	-185	-3277	3	50
D:	1530.68	-1635	-209	-16263	-75	28	49	-1296	-185	-3277	0	50
D:	1532.22	-1635	-209	-16263	-38	216	-76	-1296	-185	-3277	1	50
D:	1533.99	-1736	-177	-16842	-38	216	-76	-1296	-185	-3277	0	50
D:	1535.55	-1736	-177	-16842	-38	216	-76	-1296	-185	-3277	2	50
D:	1537.09	-1736	-177	-16842	-28	79	-35	-1296	-185	-3277	3	50
D:	1538.68	-1717	-275	-16083	-28	79	-35	-1296	-185	-3277	2	50
D:	1540.36	-1717	-275	-16083	-50	88	46	-1296	-185	-3277	1	50
D:	1541.95	-1788	-225	-16465	-50	88	46	-1304	-211	-3343	0	50
D:	1543.52	-1788	-225	-16465	-50	88	46	-1304	-211	-3343	2	50
D:	1545.07	-1788	-225	-16465	-124	-59	-17	-1304	-211	-3343	3	50
D:	1546.68	-1790	-179	-16211	-124	-59	-17	-1304	-211	-3343	0	50
D:	1548.22	-1790	-179	-16211	-98	-67	-89	-1304	-211	-3343	1	50
D:	1549.96	-1704	-256	-16347	-98	-67	-89	-1304	-211	-3343	0	50
D:	1551.56	-1704	-256	-16347	-98	-67	-89	-1304	-211	-3343	2	50
D:	1553.10	-1704	-256	-16347	-66	59	-21	-1304	-211	-3343	3	50
D:	1554.68	-1530	-294	-16539	-66	59	-21	-1304	-211	-3343	0	50
D:	1556.22	-1530	-294	-16539	-172	-73	-69	-1304	-211	-3343	1	50
D:	1557.80	-1688	-248	-16221	-172	-73	-69	-1304	-211	-3343	0	50
D:	1559.39	-1688	-248	-16221	-172	-73	-69	-1304	-211	-3343	2	50
D:	1560.95	-1688	-248	-16221	-57	-66	-115	-1297	-207	-3438	3	50
D:	1562.53	-1522	-232	-16659	-57	-66	-115	-1297	-207	-3438	0	50
D:	1564.07	-1522	-232	-16659	-98	-11	-41	-1297	-207	-3438	1	50
D:	1565.68	-1766	-284	-16203	-98	-11	-41	-1297	-207	-3438	3	50
D:	1567.21	-1766	-284	-16203	-98	-11	-41	-1297	-207	-3438	2	50
D:	1568.78	-1766	-284	-16203	-80	45	-53	-1297	-207	-3438	3	50
D:	1570.39	-1616	-323	-16537	-80	45	-53	-1297	-207	-3438	0	50
D:	1571.95	-1616	-323	-16537	-80	-62	-48	-1297	-207	-3438	1	50
D:	1573.50	-1616	-243	-16636	-152	-62	-48	-1297	-207	-3438	3	50
D:	1575.07	-1696	-243	-16636	-152	-62	-48	-1297	-207	-3438	2	50
D:	1576.68	-1696	-243	-16636	-119	91	-50	-1297	-207	-3438	1	50
D:	1578.23	-1644	-239	-16301	-119	91	-50	-1297	-207	-3438	0	50
D:	1579.83	-1644	-239	-16301	-119	-154	-220	-1297	-207	-3438	1	50
D:	1581.39	-1644	-239	-16301	-119	-154	-220	-1284	-209	-3323	3	50
D:	1583.03	-1696	-336	-16488	-119	-154	-220	-1284	-209	-3323	2	50
D:	1584.78	-1696	-336	-16488	-80	6	-188	-1284	-209	-3323	3	50
D:	1586.34	-1828	-241	-16215	-80	6	-188	-1284	-209	-3323	0	50
D:	1587.97	-1828	-241	-16215	-80	53	-66	-1284	-209	-3323	1	50
D:	1589.55	-1816	-10	-16353	-51	53	-66	-1284	-209	-3323	3	50
D:	1591.16	-1816	-10	-16353	-51	53	-66	-1284	-209	-3323	2	50
D:	1592.78	-1816	-10	-16353	-63	-18	-217	-1284	-209	-3323	3	50
D:	1594.39	-1771	-257	-16359	-63	-18	-217	-1284	-209	-3323	0	50
D:	1595.97	-1771	-257	-16359	-63	-76	-116	-1284	-209	-3323	1	50
D:	1597.69	-1760	-192	-16322	-125	-76	-116	-1284	-209	-3323	0	50
D:	1599.34	-1760	-192	-16322	-125	-76	-116	-1284	-209	-3323	2	50
D:	1600.98	-1760	-192	-16322	-51	-17	-65	-1307	-207	-3465	3	50
D:	1602.55	-1654	-309	-16272	-51	-17	-65	-1307	-207	-3465	0	50
D:	1604.08	-1654	-309	-16272	-82	197	-114	-1307	-207	-3465	1	50
D:	1605.59	-1809	-163	-16347	-82	197	-114	-1307	-207	-3465	3	50
D:	1607.18	-1809	-163	-16347	-82	197	-114	-1307	-207	-3465	2	50
D:	1608.77	-1809	-163	-16347	-139	68	-92	-1307	-207	-3465	3	50
D:	1610.36	-1729	-183	-16383	-139	68	-92	-1307	-207	-3465	0	50
D:	1611.97	-1729	-183	-16383	-139	3	-39	-1307	-207	-3465	1	50
D:	1613.55	-1813	-251	-16412	-75	3	-39	-1307	-207	-3465	3	50
D:	1615.12	-1813	-251	-16412	-75	3	-39	-1307	-207	-3465	2	50
D:	1616.82	-1813	-251	-16412	-176	-12	-81	-1307	-207	-3465	3	50
D:	1618.43	-1772	-96	-16247	-176	-12	-81	-1307	-207	-3465	0	50
D:	1620.05	-1772	-96	-16247	-91	8	-114	-1307	-207	-3465	1	50
D:	1621.61	-1640	-30	-16295	-91	8	-114	-1288	-218	-3403	3	50
D:	1623.17	-1640	-30	-16295	-91	8	-114	-1288	-218	-3403	2	50
D:	1624.78	-1640	-30	-16295	-29	62	-83	-1288	-218	-3403	3	50
D:	1626.34	-1675	-203	-16301	-29	62	-83	-1288	-218	-3403	0	50
D:	1627.95	-1675	-203	-16301	-29	-38	-97	-1288	-218	-3403	1	50
D:	1629.49	-1675	-203	-16301	-127	-38	-97	-1288	-218	-3403	3	50
D:	1631.19	-1742	-180	-16281	-127	-38	-97	-1288	-218	-3403	2	50
D:	1632.78	-1742	-180	-16281	-148	7	-117	-1288	-218	-3403	3	50
D:	1634.37	-1782	-160	-16333	-148	7	-117	-1288	-218	-3403	0	50
D:	1635.95	-1782	-160	-16333	-148	22	-50	-1288	-218	-3403	1	50
D:	1637.49	-1782	-160	-16333	-28	22	-50	-1288	-218	-3403	3	50
D:	1639.10	-1766	-159	-16450	-28	22	-50	-1288	-218	-3403	2	50
D:	1640.68	-1766	-159	-16450	-85	126	-138	-1288	-215	-3459	3	50
D:	1642.34	-1660	-274	-16473	-85	126	-138	-1288	-215	-3459	0	50
D:	1643.96	-1660	-274	-16473	-85	6	-47	-1288	-215	-3459	1	50
D:	1645.59	-1783	-126	-16321	-137	6	-47	-1293	-215	-3459	3	50
D:	1647.20	-1783	-126	-16321	-137	6	-47	-1293	-215	-3459	2	50
D:	1648.80	-1783	-126	-16321	-63	28	-68	-1293	-215	-3459	3	50
D:	1650.37	-1769	-221	-16481	-63	28	-68	-1293	-215	-3459	0	50
D:	1651.95	-1769	-221	-16481	-63	-9	-79	-1293	-215	-3459	1	50
D:	1653.48	-1769	-221	-16481	-93	-9	-79	-1293	-215	-3459	3	50
D:	1655.05	-1798	-258	-16278	-93	-9	-79	-1293	-215	-3459	2	50
D:	1656.60	-1798	-258	-16278	21	-7	-34	-1293	-215	-3459	1	50
D:	1658.17	-1719	-242	-16331	21	-7	-34	-1293	-215	-3459	0	50
D:	1659.77	-1719	-242	-16331	21	47	-47	-1293	-215	-3459	1	50
D:	1661.33	-1719	-242	-16331	51	47	-47	-1293	-215	-3459	3	50
D:	1662.95	-1631	-280	-16329	51	47	-47	-1293	-215	-3459	2	50
D:	1664.60	-1631	-280	-16329	-70	-36	-132	-1287	-232	-3448	1	50
D:	1666.24	-1691	-233	-16148	-70	-36	-132	-1287	-232	-3448	0	50
D:	1667.83	-1691	-233	-16148	-70	31	-119	-1287	-232	-3448	1	50
D:	1669.37	-1691	-233	-16148	-41	31	-119	-1287	-232	-3448	3	50
D:	1670.97	-1753	-209	-16543	-41	31	-119	-1287	-232	-3448	2	50
D:	1672.52	-1753	-209	-16543	-12	-238	-97	-1287	-232	-3448	1	50
D:	1674.05	-1707	-215	-16651	-12	-238	-97	-1287	-232	-3448	0	50
D:	1675.68	-1707	-215	-16651	-12	30	-60	-1287	-232	-3448	2	50
D:	1677.26	-1707	-215	-16651	-48	30	-60	-1287	-232	-3448	3	50
D:	1678.84	-1768	-203	-16267	-48	30	-60	-1287	-232	-3448	2	50
D:	1680.59	-1768	-203	-16267	-141	-7	-106	-1287	-232	-3448	1	50
D:	1682.15	-1596	-209	-16613	-141	-7	-106	-1287	-232	-3448	0	50
D:	1683.70	-1596	-209	-16613	-141	-93	-130	-1287	-232	-3448	2	50
D:	1685.25	-1596	-209	-16613	-98	-93	-130	-1291	-216	-3502	3	50
D:	1686.85	-1765	-219	-16238	-98	-93	-130	-1291	-216	-3502	2	50
D:	1688.52	-1765	-219	-16238	13	-50	-30	-1291	-216	-3502	1	50
D:	1690.07	-1630	-239	-16520	13	-50	-30	-1291	-216	-3502	0	50
D:	1691.61	-1630	-239	-16520	13	-9	-118	-1291	-216	-3502	2	50
D:	1693.20	-1630	-239	-16520	-81	-9	-118	-1291	-216	-3502	3	50
D:	1694.90	-2038	-235	-16511	-81	-9	-118	-1291	-216	-3502	2	50
D:	1696.49	-2038	-235	-16511	-167	30	-52	-1291	-216	-3502	1	50
D:	1698.07	-1668	-269	-16344	-167	30	-52	-1291	-216	-3502	0	50
D:	1699.70	-1668	-269	-16344	-167	-26	-96	-1291	-216	-3502	1	50
D:	1701.39	-1668	-269	-16344	-116	-26	-96	-1291	-216	-3502	3	50
D:	1702.97	-1613	-305	-16365	-116	-26	-96	-1291	-216	-3502	2	50
D:	1704.52	-1613	-305	-16365	-50	-94	-172	-1291	-216	-3502	1	50
D:	1706.08	-1797	-195	-16248	-50	-94	-172	-1302	-221	-3376	0	50
D:	1707.60	-1797	-195	-16248	-50	-94	-172	-1302	-221	-3376	2	50
D:	1709.16	-1797	-195	-16248	-61	-79	-22	-1302	-221	-3376	3	50
D:	1710.68	-1742	-285	-16379	-61	-79	-22	-1302	-221	-3376	0	50
D:	1712.31	-1742	-285	-16379	-52	133	-140	-1302	-221	-3376	1	50
D:	1713.96	-1824	-239	-16599	-52	133	-140	-1302	-221	-3376	0	50
D:	1715.53	-1824	-239	-16599	-52	133	-140	-1302	-221	-3376	2	50
D:	1717.28	-1824	-239	-16599	-44	23	-78	-1302	-221	-3376	3	50
D:	1718.86	-1856	-211	-16154	-44	23	-78	-1302	-221	-3376	2	50
D:	1720.49	-1856	-211	-16154	-4	38	-49	-1302	-221	-3376	1	50
D:	1722.06	-1694	-216	-16545	-4	38	-49	-1302	-221	-3376	0	50
D:	1723.60	-1694	-216	-16545	-4	85	-72	-1302	-221	-3376	2	50
D:	1725.17	-1694	-216	-16545	-16	85	-72	-1294	-224	-3398	3	50
D:	1726.77	-1759	-113	-16124	-16	85	-72	-1294	-224	-3398	2	50
D:	1728.40	-1759	-113	-16124	80	-10	-10	-1294	-224	-3398	1	50
D:	1729.95	-1723	-232	-16447	80	-10	-10	-1294	-224	-3398	0	50
D:	1731.50	-1723	-232	-16447	80	-10	-10	-1294	-224	-3398	2	50
D:	1733.08	-1723	-232	-16447	31	13	-10	-1294	-224	-3398	3	50
D:	1734.68	-1751	-163	-16366	31	13	-10	-1294	-224	-3398	0	50
D:	1736.22	-1751	-163	-16366	-156	11	-131	-1294	-224	-3398	1	50
D:	1737.80	-1656	-179	-16279	-156	11	-131	-1294	-224	-3398	0	50
D:	1739.39	-1656	-179	-16279	-156	11	-131	-1294	-224	-3398	2	50
D:	1740.97	-1656	-179	-16279	-149	-79	-117	-1294	-224	-3398	3	50
D:	1742.53	-1640	-244	-16369	-149	-79	-117	-1294	-224	-3398	0	50
D:	1744.15	-1640	-244	-16369	-72	-12	-59	-1294	-224	-3398	1	50
D:	1745.81	-1756	-133	-16136	-72	-12	-59	-1309	-229	-3336	0	50
D:	1747.35	-1756	-133	-16136	-72	-12	-59	-1309	-229	-3336	2	50
D:	1748.96	-1756	-133	-16136	-168	-27	-102	-1309	-229	-3336	3	50
D:	1750.68	-1729	-197	-16299	-168	-27	-102	-1309	-229	-3336	0	50
D:	1752.23	-1729	-197	-16299	-87	30	-55	-1309	-229	-3336	1	50
D:	1753.80	-1756	-208	-16258	-87	30	-55	-1309	-229	-3336	0	50
D:	1755.37	-1756	-208	-16258	-87	30	-55	-1309	-229	-3336	2	50
D:	1756.95	-1756	-208	-16258	-177	-10	-113	-1309	-229	-3336	3	50
D:	1758.52	-1721	-293	-16237	-177	-10	-113	-1309	-229	-3336	0	50
D:	1760.04	-1721	-293	-16237	-59	-73	-73	-1309	-229	-3336	1	50
D:	1761.58	-2023	-282	-16301	-59	-73	-73	-1309	-229	-3336	3	50
D:	1763.15	-2023	-282	-16301	-59	-73	-73	-1309	-229	-3336	2	50
D:	1764.67	-2023	-282	-16301	-89	48	-86	-1291	-243	-3461	1	50
D:	1766.26	-1744	-323	-16355	-89	48	-86	-1291	-243	-3461	0	50
D:	1767.83	-1744	-323	-16355	-89	30	-88	-1291	-243	-3461	1	50
D:	1769.37	-1744	-323	-16355	-90	30	-88	-1291	-243	-3461	3	50
D:	1770.97	-1536	-334	-16446	-90	30	-88	-1291	-243	-3461	2	50
D:	1772.55	-1536	-334	-16446	-138	25	-107	-1291	-243	-3461	1	50
D:	1774.09	-1769	-217	-16159	-138	25	-107	-1291	-243	-3461	0	50
D:	1775.67	-1769	-217	-16159	-138	35	-90	-1291	-243	-3461	2	50
D:	1777.23	-1769	-217	-16159	-53	35	-90	-1291	-243	-3461	3	50
D:	1778.80	-1460	-318	-16459	-53	35	-90	-1291	-243	-3461	2	50
D:	1780.39	-1460	-318	-16459	-53	-1	-100	-1291	-243	-3461	1	50
D:	1781.97	-1624	-212	-16317	-53	-1	-100	-1291	-243	-3461	0	50
D:	1783.55	-1624	-212	-16317	-53	-1	-100	-1291	-243	-3461	2	50
D:	1785.10	-1624	-212	-16317	-130	2	-149	-1286	-239	-3360	3	50
D:	1786.68	-1776	-100	-16432	-130	2	-149	-1286	-239	-3360	0	50
D:	1788.23	-1776	-100	-16432	-149	27	-134	-1286	-239	-3360	1	50
D:	1789.83	-1750	-247	-16606	-149	27	-134	-1286	-239	-3360	0	50
D:	1791.39	-1750	-247	-16606	-149	27	-134	-1286	-239	-3360	2	50
D:	1792.97	-1750	-247	-16606	-249	5	-70	-1286	-239	-3360	3	50
D:	1794.48	-1602	-257	-16398	-249	5	-70	-1286	-239	-3360	0	50
D:	1796.07	-1602	-257	-16398	-251	35	-129	-1286	-239	-3360	1	50
D:	1797.72	-1709	-259	-16744	-251	35	-129	-1286	-239	-3360	3	50
D:	1799.28	-1709	-259	-16744	-251	35	-129	-1286	-239	-3360	2	50
D:	1800.83	-1709	-259	-16744	-205	-81	-82	-1286	-239	-3360	3	50
D:	1802.39	-1747	-272	-16494	-205	-81	-82	-1286	-239	-3360	0	50
D:	1803.97	-1747	-272	-16494	-205	9	-90	-1286	-239	-3360	1	50
D:	1805.55	-1780	-212	-16274	-172	9	-90	-1286	-202	-3553	3	50
D:	1807.12	-1780	-212	-16274	-172	9	-90	-1286	-202	-3553	2	50
D:	1808.67	-1780	-212	-16274	-91	239	-137	-1285	-202	-3553	1	50
D:	1810.22	-1746	-372	-16750	-91	239	-137	-1285	-202	-3553	0	50
D:	1811.83	-1746	-372	-16750	-91	-27	-107	-1285	-202	-3553	1	50
D:	1813.40	-1746	-372	-16750	-101	-27	-107	-1285	-202	-3553	3	50
D:	1814.97	-1856	-147	-16333	-101	-27	-107	-1285	-202	-3553	2	50
D:	1816.52	-1856	-147	-16333	-174	-31	-78	-1285	-202	-3553	1	50
D:	1818.05	-1752	-273	-16167	-174	-31	-78	-1285	-202	-3553	0	50
D:	1819.59	-1752	-273	-16167	-174	1	-112	-1285	-202	-3553	2	50
D:	1821.18	-1752	-273	-16167	-70	1	-112	-1285	-202	-3553	3	50
D:	1822.77	-1782	-225	-16392	-70	1	-112	-1285	-202	-3553	2	50
D:	1824.37	-1782	-225	-16392	-48	5	-27	-1285	-202	-3553	1	50
D:	1825.97	-1724	-203	-16077	-48	5	-27	-1285	-202	-3553	0	50
D:	1827.52	-1724	-203	-16077	-48	5	-27	-1285	-202	-3553	2	50
D:	1829.05	-1724	-203	-16077	-35	26	-75	-1291	-233	-3381	3	50
D:	1830.67	-1621	-165	-16572	-35	26	-75	-1291	-233	-3381	2	50
D:	1832.40	-1621	-165	-16572	12	37	-52	-1291	-233	-3381	1	50
D:	1834.09	-1665	-307	-16229	12	37	-52	-1291	-233	-3381	0	50
D:	1835.68	-1665	-307	-16229	12	38	-68	-1291	-233	-3381	2	50
D:	1837.23	-1665	-307	-16229	47	38	-68	-1291	-233	-3381	3	50
D:	1838.83	-1603	-213	-16767	47	38	-68	-1291	-233	-3381	2	50
D:	1840.40	-1603	-213	-16767	82	82	-166	-1291	-233	-3381	1	50
D:	1841.95	-1696	-270	-16593	82	82	-166	-1291	-233	-3381	0	50
D:	1843.48	-1696	-270	-16593	82	82	-166	-1291	-233	-3381	2	50
D:	1845.04	-1696	-270	-16593	94	-97	-109	-1291	-233	-3381	3	50
D:	1846.57	-1535	-158	-16361	94	-97	-109	-1291	-233	-3381	0	50
D:	1848.09	-1535	-158	-16361	56	-14	-92	-1291	-233	-3381	1	50
D:	1849.68	-1802	-283	-16432	56	-14	-92	-1286	-217	-3240	3	50
D:	1851.27	-1802	-283	-16432	56	-14	-92	-1286	-217	-3240	2	50
D:	1852.96	-1802	-283	-16432	33	30	-104	-1286	-217	-3240	3	50
D:	1854.51	-1800	-191	-16285	33	30	-104	-1286	-217	-3240	0	50
D:	1856.07	-1800	-191	-16285	-42	77	-84	-1286	-217	-3240	1	50
D:	1857.67	-1749	-307	-16703	-42	77	-84	-1286	-217	-3240	3	50
D:	1859.23	-1749	-307	-16703	-42	77	-84	-1286	-217	-3240	2	50
D:	1860.80	-1749	-307	-16703	-25	-8	-23	-1286	-217	-3240	3	50
D:	1862.39	-1799	-193	-16259	-25	-8	-23	-1286	-217	-3240	0	50
D:	1863.94	-1799	-193	-16259	231	91	-41	-1286	-217	-3240	1	50
D:	1865.48	-1799	-193	-16259	47	91	-41	-1286	-217	-3240	3	50
D:	1867.17	-1473	-276	-16466	47	91	-41	-1286	-217	-3240	2	50
D:	1868.77	-1473	-276	-16466	77	95	-45	-1281	-245	-3391	3	50
D:	1870.39	-1667	-223	-16365	77	95	-45	-1281	-245	-3391	0	50
D:	1871.95	-1667	-223	-16365	77	49	-136	-1281	-245	-3391	1	50
D:	1873.49	-1667	-223	-16365	34	49	-136	-1281	-245	-3391	3	50
D:	1875.05	-1760	-160	-16294	34	49	-136	-1281	-245	-3391	2	50
D:	1876.60	-1760	-160	-16294	16	64	-36	-1281	-245	-3391	1	50
D:	1878.22	-1722	-351	-16459	16	64	-36	-1281	-245	-3391	0	50
D:	1879.95	-1722	-351	-16459	16	93	-73	-1281	-245	-3391	1	50
D:	1881.50	-1722	-351	-16459	36	93	-73	-1281	-245	-3391	3	50
D:	1883.05	-1848	-145	-16313	36	93	-73	-1281	-245	-3391	2	50
D:	1884.61	-1848	-145	-16313	238	99	-97	-1281	-245	-3391	1	50
D:	1886.18	-1702	-198	-16383	238	99	-97	-1281	-245	-3391	0	50
D:	1887.77	-1702	-198	-16383	238	12	-56	-1281	-245	-3391	1	50
D:	1889.32	-1702	-198	-16383	-10	12	-56	-1287	-196	-3459	3	50
D:	1890.96	-1623	-186	-16557	-10	12	-56	-1287	-196	-3459	2	48
D:	1892.52	-1623	-186	-16557	-23	114	-148	-1287	-196	-3459	1	48
D:	1894.21	-1722	-204	-16330	-23	114	-148	-1287	-196	-3459	0	48
D:	1895.80	-1722	-204	-16330	-23	65	-135	-1287	-196	-3459	1	48
D:	1897.36	-1722	-204	-16330	-44	65	-135	-1287	-196	-3459	3	48
D:	1898.97	-1692	-292	-16688	-44	65	-135	-1287	-196	-3459	2	48
D:	1900.69	-1692	-292	-16688	-50	71	-55	-1287	-196	-3459	1	48
D:	1902.29	-1687	-315	-16488	-50	71	-55	-1287	-196	-3459	0	48
D:	1903.92	-1687	-315	-16488	-50	113	-30	-1287	-196	-3459	1	48
D:	1905.49	-1687	-315	-16488	5	113	-30	-1287	-196	-3459	3	48
D:	1907.07	-1657	-231	-16193	5	113	-30	-1287	-196	-3459	2	48
D:	1908.61	-1657	-231	-16193	38	70	33	-1286	-232	-3363	1	48
D:	1910.17	-1684	-199	-16330	38	70	33	-1286	-232	-3363	0	49
D:	1911.77	-1684	-199	-16330	38	4	-119	-1286	-232	-3363	1	49
D:	1913.49	-1684	-199	-16330	-16	4	-119	-1286	-232	-3363	3	49
D:	1915.05	-1816	-186	-16204	-16	4	-119	-1286	-232	-3363	2	49
D:	1916.69	-1816	-186	-16204	-14	75	-12	-1286	-232	-3363	3	49
D:	1918.42	-1603	-267	-16567	-14	75	-12	-1286	-232	-3363	0	49
D:	1919.99	-1603	-267	-16567	-14	85	-58	-1286	-232	-3363	1	49
D:	1921.57	-1759	-214	-16212	-4	85	-58	-1286	-232	-3363	3	49
D:	1923.12	-1759	-214	-16212	-4	85	-58	-1286	-232	-3363	2	49
D:	1924.67	-1759	-214	-16212	42	3	-32	-1286	-232	-3363	1	49
D:	1926.22	-1587	-285	-16301	42	3	-32	-1286	-232	-3363	0	49
D:	1927.80	-1587	-285	-16301	42	6	-51	-1286	-232	-3363	1	49
D:	1929.38	-1587	-285	-16301	57	6	-51	-1295	-225	-3294	3	49
D:	1930.97	-1662	-233	-16243	57	6	-51	-1295	-225	-3294	2	49
D:	1932.49	-1662	-233	-16243	-4	32	-114	-1295	-225	-3294	1	49
D:	1934.06	-1720	-174	-16281	-4	32	-114	-1295	-225	-3294	0	49
D:	1935.82	-1720	-174	-16281	-4	-41	-111	-1295	-225	-3294	1	49
D:	1937.51	-1720	-248	-16189	-36	-41	-111	-1295	-225	-3294	3	49
D:	1939.05	-1623	-248	-16189	-36	-41	-111	-1295	-225	-3294	2	49
D:	1940.68	-1623	-248	-16189	-38	-84	-80	-1295	-225	-3294	1	49
D:	1942.23	-1625	-218	-16406	-38	-84	-80	-1295	-225	-3294	0	49
D:	1943.77	-1625	-218	-16406	-38	43	-50	-1295	-225	-3294	1	49
D:	1945.40	-1625	-218	-16406	-23	43	-50	-1295	-225	-3294	3	49
D:	1946.97	-1627	-158	-16389	-23	43	-50	-1295	-225	-3294	2	49
D:	1948.54	-1627	-158	-16389	5	37	-29	-1295	-225	-3294	1	49
D:	1950.21	-1696	-222	-16195	5	37	-29	-1291	-228	-3305	0	49
D:	1951.77	-1696	-222	-16195	5	103	-130	-1291	-228	-3305	1	49
D:	1953.33	-1696	-222	-16195	-62	103	-130	-1291	-228	-3305	3	49
D:	1954.95	-1714	-509	-16294	-62	103	-130	-1291	-228	-3305	2	49
D:	1956.52	-1714	-509	-16294	-31	75	-194	-1291	-228	-3305	1	49
D:	1958.07	-1423	-231	-16587	-31	75	-194	-1291	-228	-3305	0	49
D:	1959.67	-1423	-231	-16587	-31	49	26	-1291	-228	-3305	2	49
D:	1961.25	-1423	-231	-16587	103	49	26	-1291	-228	-3305	3	49
D:	1962.82	-1810	-166	-16438	103	49	26	-1291	-228	-3305	2	49
D:	1964.36	-1810	-166	-16438	-7	62	-137	-1291	-228	-3305	1	49
D:	1965.97	-1763	-175	-16410	-7	62	-137	-1291	-228	-3305	0	49
D:	1967.51	-1763	-175	-16410	-7	62	-137	-1291	-228	-3305	2	49
D:	1969.05	-1763	-175	-16410	106	13	-71	-1291	-228	-3300	3	49
D:	1970.57	-1711	-275	-16372	106	13	-71	-1291	-228	-3300	0	49
D:	1972.09	-1711	-275	-16372	-33	61	-142	-1291	-228	-3300	1	49
D:	1973.67	-1783	-221	-16205	-33	61	-142	-1289	-206	-3300	3	49
D:	1975.25	-1783	-221	-16205	-33	61	-142	-1289	-206	-3300	2	49
D:	1976.83	-1783	-221	-16205	-25	89	-116	-1289	-206	-3300	3	49
D:	1978.40	-1581	-352	-16549	-25	89	-116	-1289	-206	-3300	0	49
D:	1979.97	-1581	-352	-16549	-25	151	-51	-1289	-206	-3300	1	49
D:	1981.61	-1924	-262	-16075	-41	151	-51	-1289	-206	-3300	3	49
D:	1983.20	-1924	-262	-16075	-41	151	-51	-1289	-206	-3300	2	49
D:	1984.80	-1924	-262	-16075	-108	54	-89	-1289	-206	-3300	3	49
D:	1986.37	-1565	-201	-16605	-108	54	-89	-1289	-206	-3300	0	49
D:	1987.95	-1565	-201	-16605	-108	7	-50	-1289	-206	-3300	1	49
D:	1989.52	-1565	-201	-16605	-109	7	-50	-1289	-206	-3300	3	49
D:	1991.07	-1690	-269	-16241	-109	7	-50	-1289	-206	-3300	2	49
D:	1992.67	-1690	-269	-16241	-159	-50	-24	-1303	-213	-3330	1	49
D:	1994.22	-1954	-225	-16135	-159	-50	-24	-1303	-213	-3330	0	49
D:	1995.80	-1954	-225	-16135	-159	95	-15	-1303	-213	-3330	1	49
D:	1997.38	-1954	-225	-16135	4	95	-15	-1303	-213	-3330	3	49
D:	1998.97	-1637	-255	-16573	4	95	-15	-1303	-213	-3330	2	49
D:	2000.55	-1637	-255	-16573	-75	-13	-102	-1303	-213	-3330	1	49
D:	2002.12	-1807	-79	-16287	-75	-13	-102	-1303	-213	-3330	0	49
D:	2003.77	-1807	-79	-16287	-75	37	-71	-1303	-213	-3330	1	49
D:	2005.33	-1807	-79	-16287	-117	37	-71	-1303	-213	-3330	3	49
D:	2007.00	-1676	-253	-16390	-117	37	-71	-1303	-213	-3330	2	49
D:	2008.55	-1676	-253	-16390	-18	47	-13	-1303	-213	-3330	1	49
D:	2010.09	-1709	-249	-16481	-18	47	-13	-1303	-213	-3330	0	49
D:	2011.82	-1709	-249	-16481	-18	19	-34	-1303	-213	-3330	1	49
D:	2013.42	-1709	-249	-16481	-64	19	-34	-1282	-219	-3247	3	49
D:	2015.08	-1822	-81	-16175	-64	19	-34	-1282	-219	-3247	2	49
D:	2016.81	-1822	-81	-16175	-25	40	-151	-1282	-219	-3247	3	49
D:	2018.38	-1648	-223	-16542	-25	40	-151	-1282	-219	-3247	0	49
D:	2019.97	-1648	-223	-16542	-25	140	-3	-1282	-219	-3247	1	49
D:	2021.74	-1702	-292	-16343	-50	140	-3	-1282	-219	-3247	3	49
D:	2023.27	-1702	-292	-16343	-50	140	-3	-1282	-219	-3247	2	49
D:	2024.85	-1702	-292	-16343	-133	17	-68	-1282	-219	-3247	3	49
D:	2026.49	-1640	-245	-16576	-133	17	-68	-1282	-219	-3247	0	49
D:	2028.05	-1640	-245	-16576	-128	-12	-79	-1282	-219	-3247	1	49
D:	2029.81	-1723	-240	-16430	-128	-12	-79	-1282	-219	-3247	0	49
D:	2031.40	-1723	-240	-16430	-128	-12	-79	-1282	-219	-3247	2	49
D:	2032.97	-1723	-240	-16430	-93	49	-154	-1286	-235	-3379	3	49
D:	2034.52	-1640	-301	-16346	-93	49	-154	-1286	-235	-3379	0	49
D:	2036.06	-1640	-301	-16346	-114	41	-146	-1286	-235	-3379	1	49
D:	2037.59	-1604	-264	-16261	-114	41	-146	-1286	-235	-3379	3	49
D:	2039.17	-1604	-264	-16261	-114	41	-146	-1286	-235	-3379	2	49
D:	2040.77	-1604	-264	-16261	-57	33	-22	-1286	-235	-3379	3	49
D:	2042.32	-1839	-118	-16425	-57	33	-22	-1286	-235	-3379	0	49
D:	2043.97	-1839	-118	-16425	-57	173	-164	-1286	-235	-3379	1	49
D:	2045.53	-1839	-190	-16265	-31	173	-164	-1286	-235	-3379	3	49
D:	2047.09	-1712	-190	-16265	-31	173	-164	-1286	-235	-3379	2	49
D:	2048.67	-1712	-190	-16265	8	46	-85	-1286	-235	-3379	1	49
D:	2050.23	-1737	-253	-16379	8	46	-85	-1286	-235	-3379	0	49
D:	2051.83	-1737	-253	-16379	8	71	-99	-1286	-235	-3379	1	49
D:	2053.40	-1737	-253	-16379	51	71	-99	-1301	-191	-3376	3	49
D:	2054.97	-1768	-132	-16291	51	71	-99	-1301	-191	-3376	2	49
D:	2056.53	-1768	-132	-16291	-60	59	-72	-1301	-191	-3376	1	49
D:	2058.09	-1632	-225	-16616	-60	59	-72	-1301	-191	-3376	0	49
D:	2059.67	-1632	-225	-16616	-60	81	-66	-1301	-191	-3376	2	49
D:	2061.22	-1632	-225	-16616	17	81	-66	-1301	-191	-3376	3	49
D:	2062.83	-1731	-225	-16438	17	81	-66	-1301	-191	-3376	2	49
D:	2064.37	-1731	-225	-16438	-53	39	-113	-1301	-191	-3376	1	49
D:	2066.12	-1646	-318	-16523	-53	39	-113	-1301	-191	-3376	0	49
D:	2067.67	-1646	-318	-16523	-53	56	-139	-1301	-191	-3376	2	49
D:	2069.21	-1646	-318	-16523	-2	56	-139	-1301	-191	-3376	3	49
D:	2070.77	-1682	-283	-16371	-2	56	-139	-1301	-191	-3376	2	49
D:	2072.35	-1682	-283	-16371	-6	40	-109	-1301	-191	-3376	1	49
D:	2073.95	-1749	-101	-16233	-6	40	-109	-1291	-217	-3328	0	49
D:	2075.50	-1749	-101	-16233	-6	40	-109	-1291	-217	-3328	2	49
D:	2077.06	-1749	-101	-16233	-53	-7	-140	-1291	-217	-3328	3	49
D:	2078.67	-1627	-304	-16231	-53	-7	-140	-1291	-217	-3328	0	49
D:	2080.23	-1627	-304	-16231	46	-8	-32	-1291	-217	-3328	1	49
D:	2081.80	-1744	-254	-16261	46	-8	-32	-1291	-217	-3328	0	49
D:	2083.35	-1744	-254	-16261	46	-8	-32	-1291	-217	-3328	2	49
D:	2084.94	-1744	-254	-16261	17	-241	-107	-1291	-217	-3328	3	49
D:	2086.68	-1471	-12	-16482	17	-241	-107	-1291	-217	-3328	0	49
D:	2088.21	-1471	-12	-16482	-230	74	-157	-1291	-217	-3328	1	49
D:	2089.82	-1794	-209	-16340	-230	74	-157	-1291	-217	-3328	0	49
D:	2091.39	-1794	-209	-16340	-230	74	-157	-1291	-217	-3328	2	49
D:	2092.99	-1794	-209	-16340	-4	-27	-137	-1294	-200	-3351	3	49
D:	2094.52	-1750	-210	-16414	-4	-27	-137	-1294	-200	-3351	0	49
D:	2096.04	-1750	-210	-16414	-39	23	-139	-1294	-200	-3351	1	49
D:	2097.58	-1861	-235	-16799	-39	23	-139	-1294	-200	-3351	3	49
D:	2099.13	-1861	-235	-16799	-39	23	-139	-1294	-200	-3351	2	49
D:	2100.77	-1861	-235	-16799	24	80	-107	-1294	-200	-3351	3	49
D:	2102.34	-1772	-139	-16270	24	80	-107	-1294	-200	-3351	0	49
D:	2103.97	-1772	-139	-16270	-232	18	-111	-1294	-200	-3351	1	49
D:	2105.51	-1772	-282	-16253	-35	18	-111	-1294	-200	-3351	3	49
D:	2107.06	-1629	-282	-16253	-35	18	-111	-1294	-200	-3351	2	49
D:	2108.67	-1629	-282	-16253	27	49	-67	-1294	-200	-3351	1	49
D:	2110.24	-1862	-165	-16189	27	49	-67	-1294	-200	-3351	0	49
D:	2111.85	-1862	-165	-16189	27	65	-64	-1294	-200	-3351	1	49
D:	2113.38	-1862	-165	-16189	-28	65	-64	-1293	-232	-3277	3	49
D:	2114.95	-1806	-252	-16508	-28	65	-64	-1293	-232	-3277	2	49
D:	2116.60	-1806	-252	-16508	-61	-74	-91	-1293	-232	-3277	1	49
D:	2118.20	-1548	-334	-16319	-61	-74	-91	-1293	-232	-3277	0	49
D:	2119.77	-1548	-334	-16319	-61	-16	-84	-1293	-232	-3277	1	49
D:	2121.51	-1784	-218	-16386	-99	-16	-84	-1293	-232	-3277	3	49
D:	2123.11	-1784	-218	-16386	-99	-16	-84	-1293	-232	-3277	2	49
D:	2124.67	-1784	-218	-16386	-113	8	-88	-1293	-232	-3277	1	49
D:	2126.22	-1625	-198	-16357	-113	8	-88	-1293	-232	-3277	0	49
D:	2127.80	-1625	-198	-16357	-113	5	-75	-1293	-232	-3277	1	49
D:	2129.36	-1625	-198	-16357	-97	5	-75	-1293	-232	-3277	3	49
D:	2130.97	-1735	-126	-16213	-97	5	-75	-1293	-232	-3277	2	49
D:	2132.50	-1735	-126	-16213	-53	60	-105	-1293	-232	-3277	1	49
D:	2134.05	-1625	-213	-16198	-53	60	-105	-1293	-232	-3199	0	49
D:	2135.59	-1625	-213	-16198	-53	60	-105	-1293	-232	-3199	2	49
D:	2137.18	-1625	-213	-16198	-30	44	-138	-1288	-205	-3199	3	49
D:	2138.77	-1585	-239	-16575	-30	44	-138	-1288	-205	-3199	2	49
D:	2140.38	-1585	-239	-16575	-106	0	-192	-1288	-205	-3199	1	49
D:	2141.97	-1756	-254	-16277	-106	0	-192	-1288	-205	-3199	0	49
D:	2143.52	-1756	-254	-16277	-106	0	-192	-1288	-205	-3199	2	49
D:	2145.07	-1756	-254	-16277	-80	12	-96	-1288	-205	-3199	3	49
D:	2146.67	-1654	-251	-16344	-80	12	-96	-1288	-205	-3199	0	49
D:	2148.21	-1654	-251	-16344	-109	-62	-175	-1288	-205	-3199	1	49
D:	2149.77	-1735	-235	-16176	-109	-62	-175	-1288	-205	-3199	0	49
D:	2151.37	-1735	-235	-16176	-109	-62	-175	-1288	-205	-3199	2	49
D:	2152.97	-1735	-235	-16176	-97	12	-36	-1288	-205	-3199	3	49
D:	2154.51	-1525	-312	-16280	-97	12	-36	-1288	-205	-3199	0	49
D:	2156.06	-1525	-312	-16280	-119	49	7	-1288	-205	-3199	1	49
D:	2157.60	-1770	-261	-16261	-119	49	7	-1295	-210	-3298	3	49
D:	2159.16	-1770	-261	-16261	-119	49	7	-1295	-210	-3298	2	49
D:	2160.77	-1770	-261	-16261	8	36	-17	-1295	-210	-3298	3	49
D:	2162.39	-1724	-291	-16371	8	36	-17	-1295	-210	-3298	0	49
D:	2163.95	-1724	-291	-16371	-248	116	-201	-1295	-210	-3298	1	49
D:	2165.48	-1724	-291	-16371	-8	116	-201	-1295	-210	-3298	3	49
D:	2167.05	-1690	-233	-16666	-8	116	-201	-1295	-210	-3298	2	49
D:	2168.67	-1690	-233	-16666	-63	-67	-173	-1295	-210	-3298	1	49
D:	2170.22	-1795	-273	-16088	-63	-67	-173	-1295	-210	-3298	0	49
D:	2171.80	-1795	-273	-16088	-63	-83	-162	-1295	-210	-3298	1	49
D:	2173.39	-1795	-273	-16088	-21	-83	-162	-1295	-210	-3298	3	49
D:	2174.97	-1690	-317	-16572	-21	-83	-162	-1295	-210	-3298	2	49
D:	2176.54	-1690	-317	-16572	-44	-6	-114	-1295	-210	-3298	1	49
D:	2178.08	-1724	-313	-16507	-44	-6	-114	-1298	-197	-3501	0	49
D:	2179.67	-1724	-313	-16507	-44	57	-83	-1298	-197	-3501	2	49
D:	2181.22	-1724	-313	-16507	52	57	-83	-1298	-197	-3501	3	49
D:	2182.83	-1740	-261	-16350	52	57	-83	-1298	-197	-3501	2	49
D:	2184.37	-1740	-261	-16350	33	52	39	-1298	-197	-3501	1	49
D:	2185.97	-1629	-21	-16245	33	52	39	-1298	-197	-3501	0	49
D:	2187.50	-1629	-21	-16245	33	52	39	-1298	-197	-3501	2	49
D:	2189.04	-1629	-21	-16245	-3	30	-43	-1298	-197	-3501	3	49
D:	2190.67	-1854	-177	-16221	-3	30	-43	-1298	-197	-3501	0	49
D:	2192.24	-1854	-177	-16221	14	48	-15	-1298	-197	-3501	1	49
D:	2193.83	-1729	-217	-16400	14	48	-15	-1298	-197	-3501	0	49
D:	2195.40	-1729	-217	-16400	14	48	-15	-1298	-197	-3501	2	49
D:	2196.96	-1729	-217	-16400	-13	35	-43	-1297	-216	-3380	3	49
D:	2198.52	-1693	-160	-16170	-13	35	-43	-1297	-216	-3380	0	49
D:	2200.04	-1693	-160	-16170	-28	73	-198	-1297	-216	-3380	1	49
D:	2201.60	-1589	-224	-16131	-28	73	-198	-1297	-216	-3380	3	49
D:	2203.17	-1589	-224	-16131	-28	73	-198	-1297	-216	-3380	2	49
D:	2204.77	-1589	-224	-16131	-51	130	-105	-1297	-216	-3380	3	49
D:	2206.34	-1684	-196	-16342	-51	130	-105	-1297	-216	-3380	0	49
D:	2207.97	-1684	-196	-16342	-51	26	-97	-1297	-216	-3380	1	49
D:	2209.55	-1520	-272	-16267	-65	26	-97	-1297	-216	-3380	3	49
D:	2211.12	-1520	-272	-16267	-65	26	-97	-1297	-216	-3380	2	49
D:	2212.69	-1520	-272	-16267	-177	-72	-78	-1297	-216	-3380	1	49
D:	2214.30	-1677	-293	-16508	-177	-72	-78	-1297	-216	-3380	0	49
D:	2215.97	-1677	-293	-16508	-177	6	-63	-1297	-216	-3380	1	49
D:	2217.53	-1677	-94	-16091	-48	6	-63	-1292	-201	-3526	3	49
D:	2219.09	-1651	-94	-16091	-48	6	-63	-1292	-201	-3526	2	49
D:	2220.67	-1651	-94	-16091	-84	254	-130	-1292	-201	-3526	1	49
D:	2222.23	-1641	-292	-16772	-84	254	-130	-1292	-201	-3526	0	49
D:	2223.80	-1641	-292	-16772	-84	21	-60	-1292	-201	-3526	1	49
D:	2225.42	-1641	-292	-16772	-125	21	-60	-1292	-201	-3526	3	49
D:	2227.15	-1777	-249	-16233	-125	21	-60	-1292	-201	-3526	2	49
D:	2228.77	-1777	-249	-16233	-41	61	-135	-1292	-201	-3526	3	49
D:	2230.36	-1733	-194	-16496	-41	61	-135	-1292	-201	-3526	0	49
D:	2231.97	-1733	-194	-16496	-41	0	-108	-1292	-201	-3526	1	49
D:	2233.54	-1733	-296	-16580	-99	0	-108	-1292	-201	-3526	3	49
D:	2235.09	-1640	-296	-16580	-99	0	-108	-1292	-201	-3526	2	49
D:	2236.67	-1640	-296	-16580	-88	54	-84	-1304	-208	-3330	1	49
D:	2238.25	-1774	-96	-16138	-88	54	-84	-1304	-208	-3330	0	49
D:	2239.83	-1774	-96	-16138	-88	87	-139	-1304	-208	-3330	1	49
D:	2241.35	-1774	-96	-16138	-93	87	-139	-1304	-208	-3330	3	49
D:	2243.02	-1435	-217	-16626	-93	87	-139	-1304	-208	-3330	2	49
D:	2244.59	-1435	-217	-16626	-23	36	-185	-1304	-208	-3330	1	49
D:	2246.17	-1790	-175	-16203	-23	36	-185	-1304	-208	-3330	0	49
D:	2247.77	-1790	-175	-16203	-23	52	-137	-1304	-208	-3330	1	49
D:	2249.38	-1790	-175	-16203	-25	52	-137	-1304	-208	-3330	3	49
D:	2250.95	-1675	-212	-16534	-25	52	-137	-1304	-208	-3330	2	49
D:	2252.48	-1675	-212	-16534	3	59	-176	-1304	-208	-3330	1	49
D:	2254.05	-1756	-210	-16299	3	59	-176	-1304	-208	-3330	0	49
D:	2255.59	-1756	-210	-16299	3	20	-135	-1304	-208	-3330	2	49
D:	2257.19	-1756	-210	-16299	0	20	-135	-1311	-215	-3236	3	49
D:	2258.77	-1723	-183	-16171	0	20	-135	-1311	-215	-3236	2	49
D:	2260.34	-1723	-183	-16171	-1	-28	-126	-1311	-215	-3236	1	49
D:	2261.95	-1672	-295	-16217	-1	-28	-126	-1311	-215	-3236	0	49
D:	2263.51	-1672	-295	-16217	-1	-28	-126	-1311	-215	-3236	2	49
D:	2265.07	-1672	-295	-16217	57	100	-30	-1311	-215	-3236	3	49
D:	2266.67	-1823	-250	-16351	57	100	-30	-1311	-215	-3236	0	49
D:	2268.22	-1823	-250	-16351	14	38	-76	-1311	-215	-3236	1	49
D:	2269.85	-1548	-356	-16626	14	38	-76	-1311	-215	-3236	0	49
D:	2271.44	-1548	-356	-16626	14	38	-76	-1311	-215	-3236	2	49
D:	2273.06	-1548	-356	-16626	10	9	80	-1311	-215	-3236	3	49
D:	2274.59	-1833	-268	-16345	10	9	80	-1311	-215	-3236	0	49
D:	2276.17	-1833	-268	-16345	-70	-1	-62	-1311	-215	-3236	1	49
D:	2277.77	-1715	-291	-16596	-70	-1	-62	-1306	-217	-3254	0	49
D:	2279.38	-1715	-291	-16596	-70	-1	-62	-1306	-217	-3254	2	49
D:	2280.97	-1715	-291	-16596	-58	-34	-105	-1306	-217	-3254	3	49
D:	2282.52	-1712	-316	-16574	-58	-34	-105	-1306	-217	-3254	0	49
D:	2284.20	-1712	-316	-16574	-9	-32	-146	-1306	-217	-3254	1	49
D:	2285.83	-1774	-259	-16309	-9	-32	-146	-1306	-217	-3254	0	49
D:	2287.39	-1774	-259	-16309	-9	-32	-146	-1306	-217	-3254	2	49
D:	2289.04	-1774	-259	-16309	-59	0	-203	-1306	-217	-3254	3	49
D:	2290.67	-1363	-267	-16693	-59	0	-203	-1306	-217	-3254	0	49
D:	2292.21	-1363	-267	-16693	-137	-225	-198	-1306	-217	-3254	1	49
D:	2293.85	-1696	-191	-16285	-137	-225	-198	-1306	-217	-3254	0	49
D:	2295.50	-1696	-191	-16285	-137	-225	-198	-1306	-217	-3254	2	49
D:	2297.07	-1696	-191	-16285	-36	10	-132	-1306	-217	-3280	3	49
D:	2298.67	-1591	-251	-16456	-36	10	-132	-1306	-217	-3280	0	49
D:	2300.26	-1591	-251	-16456	-146	68	-154	-1306	-217	-3280	1	49
D:	2301.83	-1785	-249	-16506	-146	68	-154	-1304	-189	-3280	0	49
D:	2303.37	-1785	-249	-16506	-146	68	-154	-1304	-189	-3280	2	49
D:	2304.95	-1785	-249	-16506	-104	-5	-34	-1304	-189	-3280	3	49
D:	2306.49	-1772	-202	-16470	-104	-5	-34	-1304	-189	-3280	0	49
D:	2308.06	-1772	-202	-16470	-144	30	-57	-1304	-189	-3280	1	49
D:	2309.60	-1604	-311	-16637	-144	30	-57	-1304	-189	-3280	3	49
D:	2311.16	-1604	-311	-16637	-144	30	-57	-1304	-189	-3280	2	49
D:	2312.77	-1604	-311	-16637	-44	-40	-29	-1304	-189	-3280	3	49
D:	2314.37	-1787	-262	-16410	-44	-40	-29	-1304	-189	-3280	0	49
D:	2315.97	-1787	-262	-16410	-44	-5	-46	-1304	-189	-3280	1	49
D:	2317.52	-1787	-307	-16395	-48	-5	-46	-1304	-189	-3280	3	49
D:	2319.13	-1574	-307	-16395	-48	-5	-46	-1304	-189	-3280	2	49
D:	2320.77	-1574	-307	-16395	-165	72	-107	-1298	-197	-3311	3	49
D:	2322.34	-1768	-197	-16163	-165	72	-107	-1298	-197	-3311	0	49
D:	2323.95	-1768	-197	-16163	-165	73	-106	-1298	-197	-3311	1	49
D:	2325.52	-1768	-221	-16573	-67	73	-106	-1298	-197	-3311	3	49
D:	2327.06	-1726	-221	-16573	-67	73	-106	-1298	-197	-3311	2	49
D:	2328.67	-1726	-221	-16573	-29	87	-65	-1298	-197	-3311	1	49
D:	2330.23	-1795	-236	-16658	-29	87	-65	-1298	-197	-3311	0	49
D:	2331.85	-1795	-236	-16658	-29	-9	-125	-1298	-197	-3311	1	49
D:	2333.43	-1795	-236	-16658	-73	-9	-125	-1298	-197	-3311	3	49
D:	2334.99	-1742	-200	-16383	-73	-9	-125	-1298	-197	-3311	2	49
D:	2336.55	-1742	-200	-16383	7	54	-55	-1298	-197	-3311	1	49
D:	2338.08	-1541	-251	-16531	7	54	-55	-1298	-197	-3311	0	49
D:	2339.67	-1541	-251	-16531	7	47	-151	-1298	-197	-3311	2	49
D:	2341.19	-1541	-251	-16531	17	47	-151	-1303	-209	-3259	3	49
D:	2342.77	-1793	-244	-16312	17	47	-151	-1303	-209	-3259	2	49
D:	2344.39	-1793	-244	-16312	-78	37	-97	-1303	-209	-3259	1	49
D:	2345.97	-1637	-215	-16398	-78	37	-97	-1303	-209	-3259	0	49
D:	2347.52	-1637	-215	-16398	-78	37	-97	-1303	-209	-3259	2	49
D:	2349.06	-1637	-215	-16398	61	-42	-25	-1303	-209	-3259	3	49
D:	2350.60	-1790	-51	-16403	61	-42	-25	-1303	-209	-3259	0	49
D:	2352.14	-1790	-51	-16403	87	44	-46	-1303	-209	-3259	1	49
D:	2353.77	-1740	-185	-16266	87	44	-46	-1303	-209	-3259	0	49
D:	2355.34	-1740	-185	-16266	87	44	-46	-1303	-209	-3259	2	49
D:	2356.97	-1740	-185	-16266	55	89	-90	-1303	-209	-3259	3	49
D:	2358.54	-1687	-294	-16441	55	89	-90	-1303	-209	-3259	0	49
D:	2360.09	-1687	-294	-16441	70	20	-20	-1303	-209	-3259	1	49
D:	2361.67	-1830	-310	-16249	70	20	-20	-1300	-210	-3246	3	49
D:	2363.22	-1830	-310	-16249	70	20	-20	-1300	-210	-3246	2	49
D:	2364.83	-1830	-310	-16249	116	141	-101	-1300	-210	-3246	3	49
D:	2366.40	-1636	-341	-16539	116	141	-101	-1300	-210	-3246	0	49
D:	2367.97	-1636	-341	-16539	116	210	-110	-1300	-210	-3246	1	49
D:	2369.54	-1636	-300	-16631	164	210	-110	-1300	-210	-3246	3	49
D:	2371.09	-1781	-300	-16631	164	210	-110	-1300	-210	-3246	2	49
D:	2372.67	-1781	-300	-16631	26	33	-8	-1300	-210	-3246	1	49
D:	2374.22	-1703	-313	-16323	26	33	-8	-1300	-210	-3246	0	49
D:	2375.83	-1703	-313	-16323	26	77	-114	-1300	-210	-3246	1	49
D:	2377.39	-1703	-313	-16323	112	77	-114	-1300	-210	-3246	3	49
D:	2378.96	-1724	-243	-16341	112	77	-114	-1300	-210	-3246	2	49
D:	2380.52	-1724	-243	-16341	95	71	-110	-1300	-210	-3246	1	49
D:	2382.07	-1721	-237	-16093	95	71	-110	-1304	-183	-3431	0	49
D:	2383.67	-1721	-237	-16093	95	25	-22	-1304	-183	-3431	2	50
D:	2385.23	-1721	-237	-16093	64	25	-22	-1304	-183	-3431	3	50
D:	2386.77	-1629	-327	-16285	64	25	-22	-1304	-183	-3431	2	50
D:	2388.32	-1629	-327	-16285	-50	56	-130	-1304	-183	-3431	1	50
D:	2389.97	-1758	-237	-16267	-50	56	-130	-1304	-183	-3431	0	50
D:	2391.50	-1758	-237	-16267	-50	56	-130	-1304	-183	-3431	2	50
D:	2393.07	-1758	-237	-16267	-23	58	-75	-1304	-183	-3431	3	50
D:	2394.67	-1672	-224	-16233	-23	58	-75	-1304	-183	-3431	0	50
D:	2396.20	-1672	-224	-16233	-52	18	-105	-1304	-183	-3431	1	50
D:	2397.77	-1720	-275	-16341	-52	18	-105	-1304	-183	-3431	0	50
D:	2399.32	-1720	-275	-16341	-52	18	-105	-1304	-183	-3431	2	50
D:	2400.97	-1720	-275	-16341	-74	-20	-43	-1305	-223	-3302	3	50
D:	2402.55	-1690	-245	-16071	-74	-20	-43	-1305	-223	-3302	0	50
D:	2404.11	-1690	-245	-16071	1	45	-30	-1305	-223	-3302	1	50
D:	2405.67	-1510	-341	-16566	1	45	-30	-1305	-223	-3302	3	50
D:	2407.23	-1510	-341	-16566	1	45	-30	-1305	-223	-3302	2	50
D:	2408.79	-1510	-341	-16566	29	144	-93	-1305	-223	-3302	3	50
D:	2410.36	-1642	-325	-16331	29	144	-93	-1305	-223	-3302	0	50
D:	2411.97	-1642	-325	-16331	-227	-40	-46	-1305	-223	-3302	1	50
D:	2413.54	-1642	-274	-16259	-59	-40	-46	-1305	-223	-3302	3	50
D:	2415.08	-1636	-274	-16259	-59	-40	-46	-1305	-223	-3302	2	50
D:	2416.61	-1636	-274	-16259	-176	-53	-145	-1305	-223	-3302	1	50
D:	2418.19	-1751	-227	-16470	-176	-53	-145	-1305	-223	-3302	0	50
D:	2419.77	-1751	-227	-16470	-176	-8	-121	-1305	-223	-3302	1	50
D:	2421.41	-1751	-227	-16470	-135	-8	-121	-1294	-222	-3275	3	50
D:	2422.97	-1739	-139	-16103	-135	-8	-121	-1294	-222	-3275	2	50
D:	2424.55	-1739	-139	-16103	-81	85	-170	-1294	-222	-3275	1	50
D:	2426.12	-1637	-257	-16440	-81	85	-170	-1294	-222	-3275	0	50
D:	2427.67	-1637	-257	-16440	-81	144	-146	-1294	-222	-3275	2	50
D:	2429.21	-1637	-257	-16440	-12	144	-146	-1294	-222	-3275	3	50
D:	2430.80	-1715	-290	-16311	-12	144	-146	-1294	-222	-3275	2	50
D:	2432.50	-1715	-290	-16311	-85	34	-61	-1294	-222	-3275	1	50
D:	2434.07	-1741	-181	-16303	-85	34	-61	-1294	-222	-3275	0	50
D:	2435.77	-1741	-181	-16303	-85	10	-37	-1294	-222	-3275	1	50
D:	2437.33	-1741	-181	-16303	203	10	-37	-1294	-222	-3275	3	50
D:	2438.95	-1756	-202	-16274	203	10	-37	-1294	-222	-3275	2	50
D:	2440.48	-1756	-202	-16274	12	59	-60	-1294	-222	-3275	1	50
D:	2442.07	-1757	-213	-16133	12	59	-60	-1290	-199	-3317	0	50
D:	2443.60	-1757	-213	-16133	12	34	-128	-1290	-199	-3317	2	49
D:	2445.19	-1757	-213	-16133	-19	34	-128	-1290	-199	-3317	3	49
D:	2446.77	-1696	-248	-16499	-19	34	-128	-1290	-199	-3317	2	49
D:	2448.36	-1696	-248	-16499	3	-17	-132	-1290	-199	-3317	1	49
D:	2450.17	-1782	-436	-16398	3	-17	-132	-1290	-199	-3317	0	49
D:	2451.77	-1782	-436	-16398	3	31	-186	-1290	-199	-3317	1	49
D:	2453.32	-1782	-436	-16398	-21	31	-186	-1290	-199	-3317	3	49
D:	2454.97	-1470	-182	-16774	-21	31	-186	-1290	-199	-3317	2	49
D:	2456.58	-1470	-182	-16774	-32	-36	-126	-1290	-199	-3317	1	49
D:	2458.25	-1707	-143	-16332	-32	-36	-126	-1290	-199	-3317	0	49
D:	2459.82	-1707	-143	-16332	-32	73	-101	-1290	-199	-3317	1	49
D:	2461.39	-1707	-143	-16332	-35	73	-101	-1290	-199	-3573	3	49
D:	2462.95	-1620	-319	-16275	-35	73	-101	-1290	-199	-3573	2	49
D:	2464.52	-1620	-319	-16275	-79	64	-73	-1290	-199	-3573	1	49
D:	2466.06	-1721	-293	-16492	-79	64	-73	-1297	-213	-3408	0	49
D:	2467.67	-1721	-293	-16492	-79	11	-57	-1297	-213	-3408	2	49
D:	2469.23	-1721	-293	-16492	-9	11	-57	-1297	-213	-3408	3	49
D:	2470.83	-1699	-326	-16400	-9	11	-57	-1297	-213	-3408	2	49
D:	2472.39	-1699	-326	-16400	-95	107	-93	-1297	-213	-3408	1	49
D:	2473.97	-1597	-281	-16625	-95	107	-93	-1297	-213	-3408	0	49
D:	2475.54	-1597	-281	-16625	-95	23	-82	-1297	-213	-3408	2	49
D:	2477.19	-1597	-281	-16625	-38	23	-82	-1297	-213	-3408	3	49
D:	2478.77	-1776	-323	-16427	-38	23	-82	-1297	-213	-3408	2	49
D:	2480.34	-1776	-323	-16427	-30	109	-43	-1297	-213	-3408	1	49
D:	2481.97	-1574	-506	-16427	-30	109	-43	-1297	-213	-3408	0	49
D:	2483.55	-1574	-506	-16427	-30	109	-43	-1297	-213	-3408	2	49
D:	2485.11	-1574	-506	-16427	-15	65	-113	-1302	-206	-3313	3	49
D:	2486.67	-1750	-272	-16175	-15	65	-113	-1302	-206	-3313	0	49
D:	2488.28	-1750	-272	-16175	30	65	-44	-1302	-206	-3313	1	49
D:	2489.85	-1566	-311	-16448	30	65	-44	-1302	-206	-3313	0	49
D:	2491.36	-1566	-311	-16448	30	65	-44	-1302	-206	-3313	2	49
D:	2492.97	-1566	-311	-16448	-47	81	-82	-1302	-206	-3313	3	49
D:	2494.54	-1674	-277	-16539	-47	81	-82	-1302	-206	-3313	0	49
D:	2496.08	-1674	-277	-16539	-59	144	-36	-1302	-206	-3313	1	49
D:	2497.67	-1709	-305	-16440	-59	144	-36	-1302	-206	-3313	3	49
D:	2499.24	-1709	-305	-16440	-59	144	-36	-1302	-206	-3313	2	49
D:	2500.82	-1709	-305	-16440	-125	29	-53	-1302	-206	-3313	3	49
D:	2502.38	-1602	-304	-16559	-125	29	-53	-1302	-206	-3313	0	49
D:	2503.97	-1602	-304	-16559	-125	-15	-89	-1302	-206	-3313	1	49
D:	2505.49	-1602	-304	-16559	-30	-15	-89	-1285	-228	-3341	3	49
D:	2507.07	-1831	-254	-16319	-30	-15	-89	-1285	-228	-3341	2	49
D:	2508.81	-1831	-254	-16319	67	-13	-104	-1285	-228	-3341	3	49
D:	2510.37	-1469	-330	-16546	67	-13	-104	-1285	-228	-3341	0	49
D:	2511.96	-1469	-330	-16546	-189	52	-133	-1285	-228	-3341	1	49
D:	2513.74	-1576	-278	-16334	-14	52	-133	-1285	-228	-3341	3	49
D:	2515.28	-1576	-278	-16334	-14	52	-133	-1285	-228	-3341	2	49
D:	2516.85	-1576	-278	-16334	34	52	-146	-1285	-228	-3341	3	49
D:	2518.44	-1710	-165	-16187	34	52	-146	-1285	-228	-3341	0	49
D:	2520.04	-1710	-165	-16187	66	61	-71	-1285	-228	-3341	1	49
D:	2521.57	-1599	-241	-16469	66	61	-71	-1285	-228	-3341	3	49
D:	2523.10	-1599	-241	-16469	66	61	-71	-1285	-228	-3341	2	49
D:	2524.67	-1599	-241	-16469	101	13	-118	-1299	-218	-3267	1	49
D:	2526.24	-1806	-252	-16183	101	13	-118	-1299	-218	-3267	0	49
D:	2527.83	-1806	-252	-16183	101	44	-39	-1299	-218	-3267	1	49
D:	2529.36	-1806	-252	-16183	155	44	-39	-1299	-218	-3267	3	49
D:	2530.95	-1793	-210	-16536	155	44	-39	-1299	-218	-3267	2	49
D:	2532.56	-1793	-210	-16536	92	-48	-57	-1299	-218	-3267	1	49
D:	2534.12	-1846	-213	-16574	92	-48	-57	-1299	-218	-3267	0	49
D:	2535.67	-1846	-213	-16574	92	186	-77	-1299	-218	-3267	2	49
D:	2537.23	-1846	-213	-16574	73	186	-77	-1299	-218	-3267	3	49
D:	2538.85	-1700	-122	-16471	73	186	-77	-1299	-218	-3267	2	49
D:	2540.49	-1700	-122	-16471	160	64	-70	-1299	-218	-3267	1	49
D:	2542.06	-1667	-321	-16240	160	64	-70	-1299	-218	-3267	0	49
D:	2543.59	-1667	-321	-16240	160	183	-117	-1299	-218	-3267	2	49
D:	2545.14	-1667	-321	-16240	-30	183	-117	-1295	-202	-3484	3	49
D:	2546.77	-1690	-219	-16302	-30	183	-117	-1295	-202	-3484	2	49
D:	2548.36	-1690	-219	-16302	-25	66	-176	-1295	-202	-3484	1	49
D:	2549.97	-1375	-300	-16788	-25	66	-176	-1295	-202	-3484	0	49
D:	2551.55	-1375	-300	-16788	-25	66	-176	-1295	-202	-3484	2	49
D:	2553.11	-1375	-300	-16788	-13	92	-86	-1295	-202	-3484	3	49
D:	2554.67	-2019	-290	-16245	-13	92	-86	-1295	-202	-3484	0	49
D:	2556.21	-2019	-290	-16245	38	128	-27	-1295	-202	-3484	1	49
D:	2557.79	-1732	-321	-16369	38	128	-27	-1295	-202	-3484	0	49
D:	2559.39	-1732	-321	-16369	38	128	-27	-1295	-202	-3484	2	49
D:	2560.97	-1732	-321	-16369	-101	56	-97	-1295	-202	-3484	3	49
D:	2562.53	-1721	-221	-16469	-101	56	-97	-1295	-202	-3484	0	49
D:	2564.09	-1721	-221	-16469	8	40	-73	-1295	-202	-3484	1	49
D:	2565.67	-1675	-301	-16268	8	40	-73	-1288	-223	-3367	3	49
D:	2567.20	-1675	-301	-16268	8	40	-73	-1288	-223	-3367	2	49
D:	2568.80	-1675	-301	-16268	-65	68	-52	-1288	-223	-3367	3	49
D:	2570.37	-1531	-315	-16707	-65	68	-52	-1288	-223	-3367	0	49
D:	2571.97	-1531	-315	-16707	-65	-29	-182	-1288	-223	-3367	1	49
D:	2573.54	-1531	-237	-16298	-126	-29	-182	-1288	-223	-3367	3	49
D:	2575.09	-1766	-237	-16298	-126	-29	-182	-1288	-223	-3367	2	49
D:	2576.67	-1766	-237	-16298	-194	41	-204	-1288	-223	-3367	1	49
D:	2578.24	-1749	-327	-16478	-194	41	-204	-1288	-223	-3367	0	49
D:	2579.83	-1749	-327	-16478	-194	-32	-69	-1288	-223	-3367	1	49
D:	2581.38	-1749	-327	-16478	8	-32	-69	-1288	-223	-3367	3	49
D:	2582.95	-1690	-5	-16388	8	-32	-69	-1288	-223	-3367	2	49
D:	2584.49	-1690	-5	-16388	-82	14	-122	-1288	-223	-3367	1	49
D:	2586.04	-1701	-272	-16328	-82	14	-122	-1285	-233	-3278	0	49
D:	2587.67	-1701	-272	-16328	-82	-13	-74	-1285	-233	-3278	2	49
D:	2589.23	-1701	-272	-16328	-8	-13	-74	-1285	-233	-3278	3	49
D:	2590.80	-1731	-213	-16701	-8	-13	-74	-1285	-233	-3278	2	49
D:	2592.39	-1731	-213	-16701	-161	7	-55	-1285	-233	-3278	1	49
D:	2593.97	-1773	-321	-16311	-161	7	-55	-1285	-233	-3278	0	49
D:	2595.52	-1773	-321	-16311	-161	7	-55	-1285	-233	-3278	2	49
D:	2597.07	-1773	-321	-16311	-127	-40	-187	-1285	-233	-3278	3	49
D:	2598.67	-1784	-318	-16491	-127	-40	-187	-1285	-233	-3278	0	49
D:	2600.19	-1784	-318	-16491	-8	93	-155	-1285	-233	-3278	1	49
D:	2601.85	-1907	-151	-16272	-8	93	-155	-1285	-233	-3278	0	49
D:	2603.58	-1907	-151	-16272	-8	93	-155	-1285	-233	-3278	2	49
D:	2605.13	-1907	-151	-16272	-9	31	-41	-1288	-209	-3354	3	49
D:	2606.67	-1679	-208	-16156	-9	31	-41	-1288	-209	-3354	0	49
D:	2608.22	-1679	-208	-16156	-23	-33	-65	-1288	-209	-3354	1	49
D:	2609.83	-1589	-180	-16440	-23	-33	-65	-1288	-209	-3354	0	49
D:	2611.38	-1589	-180	-16440	-23	-33	-65	-1288	-209	-3354	2	49
D:	2612.94	-1589	-180	-16440	-17	64	-87	-1288	-209	-3354	3	49
D:	2614.52	-1758	-477	-16325	-17	64	-87	-1288	-209	-3354	0	49
D:	2616.18	-1758	-477	-16325	68	33	-135	-1288	-209	-3354	1	49
D:	2617.92	-1721	-332	-16344	68	33	-135	-1288	-209	-3354	0	49
D:	2619.46	-1721	-332	-16344	68	33	-135	-1288	-209	-3354	2	49
D:	2621.15	-1721	-332	-16344	-35	100	-130	-1288	-209	-3354	3	49
D:	2622.77	-1729	-333	-16331	-35	100	-130	-1288	-209	-3354	2	49
D:	2624.35	-1729	-333	-16331	-81	51	-79	-1288	-209	-3354	1	49
D:	2626.01	-1637	-221	-16264	-81	51	-79	-1288	-209	-3354	0	49
D:	2627.57	-1637	-221	-16264	-81	51	-79	-1288	-209	-3354	2	50
D:	2629.11	-1637	-221	-16264	-29	33	-12	-1288	-212	-3352	3	50
D:	2630.72	-1628	-297	-16667	-29	33	-12	-1288	-212	-3352	0	50
D:	2632.26	-1628	-297	-16667	39	114	-147	-1288	-212	-3352	1	50
D:	2633.85	-1779	-203	-16169	39	114	-147	-1288	-212	-3352	0	50
D:	2635.38	-1779	-203	-16169	39	114	-147	-1288	-212	-3352	2	50
D:	2636.96	-1779	-203	-16169	-33	105	-127	-1288	-212	-3352	3	50
D:	2638.52	-1844	-217	-16438	-33	105	-127	-1288	-212	-3352	0	50
D:	2640.06	-1844	-217	-16438	-48	82	-143	-1288	-212	-3352	1	50
D:	2641.67	-1828	-181	-16211	-48	82	-143	-1288	-212	-3352	3	50
D:	2643.24	-1828	-181	-16211	-48	82	-143	-1288	-212	-3352	2	50
D:	2644.83	-1828	-181	-16211	-64	16	-89	-1288	-212	-3352	3	50
D:	2646.37	-1753	-257	-16247	-64	16	-89	-1288	-212	-3352	0	50
D:	2648.06	-1753	-257	-16247	-67	15	-75	-1288	-212	-3352	1	50
D:	2649.77	-1622	-263	-16221	-67	15	-75	-1289	-218	-3386	0	50
D:	2651.35	-1622	-263	-16221	-67	15	-75	-1289	-218	-3386	2	50
D:	2652.96	-1622	-263	-16221	-130	-14	-118	-1289	-218	-3386	3	50
D:	2654.52	-1753	-230	-16311	-130	-14	-118	-1289	-218	-3386	0	50
D:	2656.07	-1753	-230	-16311	-182	-8	-85	-1289	-218	-3386	1	50
D:	2657.67	-1709	-238	-16396	-182	-8	-85	-1289	-218	-3386	3	50
D:	2659.24	-1709	-238	-16396	-182	-8	-85	-1289	-218	-3386	2	50
D:	2660.85	-1709	-238	-16396	-79	67	-118	-1289	-218	-3386	3	50
D:	2662.49	-1626	-246	-16254	-79	67	-118	-1289	-218	-3386	0	50
D:	2664.19	-1626	-246	-16254	-104	-4	-56	-1289	-218	-3386	1	50
D:	2665.77	-1522	-225	-16223	-104	-4	-56	-1289	-218	-3386	0	50
D:	2667.34	-1522	-225	-16223	-104	-4	-56	-1289	-218	-3386	2	50
D:	2668.96	-1522	-225	-16223	-101	101	-116	-1297	-227	-3346	3	50
D:	2670.53	-1747	-207	-16354	-101	101	-116	-1297	-227	-3346	0	50
D:	2672.08	-1747	-207	-16354	-78	-21	-92	-1297	-227	-3346	1	50
D:	2673.67	-1876	-189	-16237	-78	-21	-92	-1297	-227	-3346	3	50
D:	2675.24	-1876	-189	-16237	-78	-21	-92	-1297	-227	-3346	2	50
D:	2676.83	-1876	-189	-16237	-88	-4	-74	-1297	-227	-3346	3	50
D:	2678.39	-1688	-265	-16263	-88	-4	-74	-1297	-227	-3346	0	50
D:	2679.95	-1688	-265	-16263	168	48	-133	-1297	-227	-3346	1	50
D:	2681.49	-1688	-265	-16263	7	48	-133	-1297	-227	-3346	3	50
D:	2683.06	-1687	-170	-16187	7	48	-133	-1297	-227	-3346	2	50
D:	2684.59	-1687	-170	-16187	53	67	-25	-1297	-227	-3346	1	50
D:	2686.23	-1662	-267	-16553	53	67	-25	-1297	-227	-3346	0	50
D:	2687.82	-1662	-267	-16553	53	12	-61	-1297	-227	-3346	1	50
D:	2689.39	-1662	-267	-16553	1	12	-61	-1289	-205	-3262	3	50
D:	2690.94	-1790	-235	-16201	1	12	-61	-1289	-205	-3262	2	50
D:	2692.47	-1790	-235	-16201	-5	18	-175	-1289	-205	-3262	1	50
D:	2694.06	-1744	-215	-16197	-5	18	-175	-1289	-205	-3262	0	50
D:	2695.67	-1744	-215	-16197	-5	68	-64	-1289	-205	-3262	2	50
D:	2697.23	-1744	-215	-16197	-45	68	-64	-1289	-205	-3262	3	50
D:	2698.83	-1816	-299	-16442	-45	68	-64	-1289	-205	-3262	2	50
D:	2700.68	-1816	-299	-16442	-32	1	-10	-1289	-205	-3262	1	50
D:	2702.22	-1793	-189	-16322	-32	1	-10	-1289	-205	-3262	0	50
D:	2703.85	-1793	-189	-16322	-32	-210	-84	-1289	-205	-3262	1	50
D:	2705.49	-1793	-189	-16322	-96	-210	-84	-1289	-205	-3262	3	50
D:	2707.04	-1665	-231	-16494	-96	-210	-84	-1289	-205	-3262	2	50
D:	2708.58	-1665	-231	-16494	-156	21	-22	-1281	-232	-3306	1	50
D:	2710.19	-1640	-277	-16646	-156	21	-22	-1281	-232	-3306	0	49
D:	2711.77	-1640	-277	-16646	-156	71	-7	-1281	-232	-3306	1	49
D:	2713.37	-1640	-277	-16646	-123	71	-7	-1281	-232	-3306	3	49
D:	2714.95	-1782	-74	-16208	-123	71	-7	-1281	-232	-3306	2	49
D:	2716.58	-1782	-74	-16208	-98	16	-61	-1281	-232	-3306	1	49
D:	2718.17	-1487	-259	-16772	-98	16	-61	-1281	-232	-3306	0	49
D:	2719.77	-1487	-259	-16772	-98	128	-52	-1281	-232	-3306	1	49
D:	2721.35	-1487	-259	-16772	-77	128	-52	-1281	-232	-3306	3	49
D:	2722.97	-1768	-190	-16232	-77	128	-52	-1281	-232	-3306	2	49
D:	2724.54	-1768	-190	-16232	-59	8	-69	-1281	-232	-3306	1	49
D:	2726.25	-1510	-315	-16438	-59	8	-69	-1281	-232	-3306	0	49
D:	2727.83	-1510	-315	-16438	-59	-3	-95	-1281	-232	-3306	1	49
D:	2729.39	-1510	-315	-16438	-22	-3	-95	-1285	-216	-3430	3	49
D:	2730.96	-1700	-169	-16271	-22	-3	-95	-1285	-216	-3430	2	49
D:	2732.55	-1700	-169	-16271	-87	89	-101	-1285	-216	-3430	1	49
D:	2734.15	-1598	-273	-16354	-87	89	-101	-1285	-216	-3430	0	49
D:	2735.77	-1598	-273	-16354	-87	40	-163	-1285	-216	-3430	1	49
D:	2737.38	-1598	-273	-16354	-35	40	-163	-1285	-216	-3430	3	49
D:	2738.97	-1555	-273	-16585	-35	40	-163	-1285	-216	-3430	2	49
D:	2740.50	-1555	-273	-16585	-81	117	-77	-1285	-216	-3430	1	49
D:	2742.07	-1730	-225	-16353	-81	117	-77	-1285	-216	-3430	0	49
D:	2743.67	-1730	-225	-16353	-81	124	-86	-1285	-216	-3430	2	49
D:	2745.21	-1730	-225	-16353	7	124	-86	-1285	-216	-3430	3	49
D:	2746.86	-1646	-176	-16407	7	124	-86	-1285	-216	-3430	2	49
D:	2748.40	-1646	-176	-16407	-25	71	-75	-1285	-216	-3430	1	49
D:	2750.15	-1699	-191	-16341	-25	71	-75	-1285	-237	-3396	0	49
D:	2751.67	-1699	-191	-16341	-25	73	-114	-1285	-237	-3396	2	49
D:	2753.24	-1699	-191	-16341	36	73	-114	-1285	-237	-3396	3	49
D:	2754.83	-1683	-160	-16367	36	73	-114	-1285	-237	-3396	2	49
D:	2756.36	-1683	-160	-16367	170	-47	-99	-1285	-237	-3396	1	49
D:	2757.96	-1656	-233	-16200	170	-47	-99	-1285	-237	-3396	0	49
D:	2759.55	-1656	-233	-16200	170	-47	-99	-1285	-237	-3396	2	49
D:	2761.11	-1656	-233	-16200	30	80	-62	-1285	-237	-3396	3	49
D:	2762.70	-1560	-315	-16323	30	80	-62	-1285	-237	-3396	2	49
D:	2764.43	-1560	-315	-16323	20	109	-86	-1285	-237	-3396	1	49
D:	2766.05	-1744	-260	-16796	20	109	-86	-1285	-237	-3396	0	49
D:	2767.68	-1744	-260	-16796	20	47	-99	-1285	-237	-3396	1	49
D:	2769.32	-1744	-260	-16796	148	47	-99	-1299	-191	-3406	3	49
D:	2770.95	-1763	-237	-16069	148	47	-99	-1299	-191	-3406	2	49
D:	2772.46	-1763	-237	-16069	26	-181	-101	-1299	-191	-3406	1	49
D:	2774.07	-1526	-345	-16593	26	-181	-101	-1299	-191	-3406	0	49
D:	2775.67	-1526	-345	-16593	26	-3	-77	-1299	-191	-3406	2	49
D:	2777.22	-1526	-345	-16593	88	-3	-77	-1299	-191	-3406	3	49
D:	2778.80	-1856	-311	-16403	88	-3	-77	-1299	-191	-3406	2	49
D:	2780.38	-1856	-311	-16403	66	77	-47	-1299	-191	-3406	1	49
D:	2781.95	-1614	-305	-16805	66	77	-47	-1299	-191	-3406	0	49
D:	2783.68	-1614	-305	-16805	66	-20	-88	-1299	-191	-3406	2	49
D:	2785.23	-1614	-305	-16805	-54	-20	-88	-1299	-191	-3406	3	49
D:	2786.82	-2002	-283	-16508	-54	-20	-88	-1299	-191	-3406	2	49
D:	2788.51	-2002	-283	-16508	-108	74	-70	-1299	-191	-3406	1	49
D:	2790.08	-1803	-201	-16279	-108	74	-70	-1299	-191	-3406	0	49
D:	2791.67	-1803	-201	-16279	-108	68	-17	-1299	-191	-3406	2	49
D:	2793.22	-1803	-201	-16279	-218	68	-17	-1292	-222	-3263	3	49
D:	2794.79	-1645	-232	-16638	-218	68	-17	-1292	-222	-3263	2	49
D:	2796.39	-1645	-232	-16638	-97	-35	-66	-1292	-222	-3263	1	49
D:	2797.95	-1806	-163	-16277	-97	-35	-66	-1292	-222	-3263	0	49
D:	2799.47	-1806	-163	-16277	-97	-35	-66	-1292	-222	-3263	2	49
D:	2801.05	-1806	-163	-16277	-48	22	-65	-1292	-222	-3263	3	49
D:	2802.61	-1672	-318	-16367	-48	22	-65	-1292	-222	-3263	0	49
D:	2804.15	-1672	-318	-16367	-108	48	-56	-1292	-222	-3263	1	49
D:	2805.77	-1765	-226	-16294	-108	48	-56	-1292	-222	-3263	0	49
D:	2807.39	-1765	-226	-16294	-108	48	-56	-1292	-222	-3263	2	49
D:	2809.03	-1765	-226	-16294	-111	45	-82	-1292	-222	-3263	3	49
D:	2810.67	-1581	-283	-16430	-111	45	-82	-1292	-222	-3263	0	49
D:	2812.21	-1581	-283	-16430	-177	131	-26	-1292	-222	-3263	1	49
D:	2813.80	-1798	-453	-16476	-177	131	-26	-1299	-203	-3236	0	49
D:	2815.38	-1798	-453	-16476	-177	131	-26	-1299	-203	-3236	2	49
D:	2816.97	-1798	-453	-16476	-42	-31	-110	-1299	-203	-3236	3	49
D:	2818.54	-1788	-197	-16169	-42	-31	-110	-1299	-203	-3236	0	49
D:	2820.12	-1788	-197	-16169	-34	29	-140	-1299	-203	-3236	1	49
D:	2821.67	-1602	-267	-16611	-34	29	-140	-1299	-203	-3236	3	49
D:	2823.19	-1602	-267	-16611	-34	29	-140	-1299	-203	-3236	2	49
D:	2824.83	-1602	-267	-16611	-83	48	-103	-1299	-203	-3236	3	49
D:	2826.40	-1690	-141	-16291	-83	48	-103	-1299	-203	-3236	0	49
D:	2827.95	-1690	-141	-16291	173	-9	-112	-1299	-203	-3236	1	49
D:	2829.52	-1690	-284	-16351	41	-9	-112	-1299	-203	-3236	3	49
D:	2831.04	-1613	-284	-16351	41	-9	-112	-1299	-203	-3236	2	49
D:	2832.62	-1613	-284	-16351	-60	110	-57	-1283	-228	-3222	3	49
D:	2834.33	-1660	-133	-16151	-60	110	-57	-1283	-228	-3222	0	49
D:	2835.95	-1660	-133	-16151	196	39	-6	-1283	-228	-3222	1	49
D:	2837.50	-1660	-210	-16180	127	39	-6	-1283	-228	-3222	3	49
D:	2839.11	-1653	-210	-16180	127	39	-6	-1283	-228	-3222	2	49
D:	2840.67	-1653	-210	-16180	46	66	-113	-1283	-228	-3222	1	49
D:	2842.23	-1616	-301	-16491	46	66	-113	-1283	-228	-3222	0	49
D:	2843.84	-1616	-301	-16491	46	63	-65	-1283	-228	-3222	1	49
D:	2845.35	-1616	-301	-16491	35	63	-65	-1283	-228	-3222	3	49
D:	2846.94	-1797	-445	-16372	35	63	-65	-1283	-228	-3222	2	49
D:	2848.47	-1797	-445	-16372	-66	42	-167	-1283	-228	-3222	1	49
D:	2850.15	-1742	-275	-16207	-66	42	-167	-1283	-228	-3222	0	49
D:	2851.80	-1742	-275	-16207	-66	-20	-95	-1283	-228	-3222	1	49
D:	2853.36	-1742	-275	-16207	23	-20	-95	-1295	-204	-3338	3	49
D:	2854.95	-1737	-225	-16092	23	-20	-95	-1295	-204	-3338	2	49
D:	2856.52	-1737	-225	-16092	53	-23	18	-1295	-204	-3338	1	49
D:	2858.07	-1825	-413	-16396	53	-23	18	-1295	-204	-3338	0	49
D:	2859.60	-1825	-413	-16396	53	69	-93	-1295	-204	-3338	2	49
D:	2861.19	-1825	-413	-16396	-90	69	-93	-1295	-204	-3338	3	49
D:	2862.77	-1805	-179	-16231	-90	69	-93	-1295	-204	-3338	2	49
D:	2864.35	-1805	-179	-16231	-14	58	-146	-1295	-204	-3338	1	49
D:	2865.96	-1696	-228	-16233	-14	58	-146	-1295	-204	-3338	0	49
D:	2867.52	-1696	-228	-16233	-14	58	-146	-1295	-204	-3338	2	49
D:	2869.07	-1696	-228	-16233	-32	-5	-122	-1295	-204	-3338	3	49
D:	2870.67	-1679	-303	-16470	-32	-5	-122	-1295	-204	-3338	0	49
D:	2872.23	-1679	-303	-16470	-7	46	-11	-1295	-204	-3338	1	49
D:	2873.83	-1670	-243	-16287	-7	46	-11	-1290	-211	-3424	0	49
D:	2875.36	-1670	-243	-16287	-7	46	-11	-1290	-211	-3424	2	49
D:	2876.96	-1670	-243	-16287	-21	96	30	-1290	-211	-3424	3	49
D:	2878.50	-1629	-230	-16467	-21	96	30	-1290	-211	-3424	0	49
D:	2880.04	-1629	-230	-16467	-53	-35	-81	-1290	-211	-3424	1	49
D:	2881.61	-1689	-152	-16213	-53	-35	-81	-1290	-211	-3424	3	49
D:	2883.17	-1689	-152	-16213	-53	-35	-81	-1290	-211	-3424	2	49
D:	2884.77	-1689	-152	-16213	-95	36	-49	-1290	-211	-3424	3	49
D:	2886.34	-1675	-253	-16287	-95	36	-49	-1290	-211	-3424	0	49
D:	2887.98	-1675	-253	-16287	-95	115	-54	-1290	-211	-3424	1	49
D:	2889.55	-1719	-255	-16455	-96	115	-54	-1290	-211	-3424	3	49
D:	2891.10	-1719	-255	-16455	-96	115	-54	-1290	-211	-3424	2	49
D:	2892.67	-1719	-255	-16455	-17	45	-129	-1296	-203	-3269	1	49
D:	2894.20	-1806	-197	-16241	-17	45	-129	-1296	-203	-3269	0	49
D:	2895.79	-1806	-197	-16241	-17	11	-51	-1296	-203	-3269	1	49
D:	2897.35	-1806	-197	-16241	-13	11	-51	-1296	-203	-3269	3	49
D:	2898.96	-1753	-239	-16128	-13	11	-51	-1296	-203	-3269	2	49
D:	2900.52	-1753	-239	-16128	25	69	-116	-1296	-203	-3269	1	49
D:	2902.09	-1778	-289	-16180	25	69	-116	-1296	-203	-3269	0	49
D:	2903.67	-1778	-289	-16180	25	121	-136	-1296	-203	-3269	2	49
D:	2905.20	-1778	-289	-16180	-72	121	-136	-1296	-203	-3269	3	49
D:	2906.77	-1694	-337	-16398	-72	121	-136	-1296	-203	-3269	2	49
D:	2908.37	-1694	-337	-16398	-25	109	-86	-1296	-203	-3269	1	49
D:	2910.02	-1835	-272	-16328	-25	109	-86	-1296	-203	-3269	0	49
D:	2911.67	-1835	-272	-16328	-25	251	-52	-1296	-203	-3269	2	49
D:	2913.25	-1835	-272	-16328	55	251	-52	-1288	-216	-3396	3	49
D:	2914.85	-1696	-317	-16497	55	251	-52	-1288	-216	-3396	2	49
D:	2916.50	-1696	-317	-16497	-1	-2	-113	-1288	-216	-3396	1	49
D:	2918.04	-1589	-253	-16606	-1	-2	-113	-1288	-216	-3396	0	49
D:	2919.60	-1589	-253	-16606	-1	58	-162	-1288	-216	-3396	2	49
D:	2921.17	-1589	-253	-16606	-135	58	-162	-1288	-216	-3396	3	49
D:	2922.77	-1735	-275	-16141	-135	58	-162	-1288	-216	-3396	2	49
D:	2924.37	-1735	-275	-16141	-53	-47	-107	-1288	-216	-3396	1	49
D:	2925.95	-1834	-209	-16374	-53	-47	-107	-1288	-216	-3396	0	49
D:	2927.52	-1834	-209	-16374	-53	-47	-107	-1288	-216	-3396	2	49
D:	2929.07	-1834	-209	-16374	64	113	-149	-1288	-216	-3396	3	49
D:	2930.67	-1800	-215	-16326	64	113	-149	-1288	-216	-3396	0	49
D:	2932.19	-1800	-215	-16326	25	23	-120	-1288	-216	-3396	1	49
D:	2933.85	-1637	-286	-16169	25	23	-120	-1293	-186	-3242	0	49
D:	2935.48	-1637	-286	-16169	25	23	-120	-1293	-186	-3242	2	49
D:	2937.06	-1637	-286	-16169	48	14	-116	-1293	-186	-3242	3	49
D:	2938.67	-1778	-263	-16590	48	14	-116	-1293	-186	-3242	0	49
D:	2940.22	-1778	-263	-16590	85	111	-18	-1293	-186	-3242	1	49
D:	2941.90	-1787	-252	-16425	85	111	-18	-1293	-186	-3242	0	49
D:	2943.50	-1787	-252	-16425	85	111	-18	-1293	-186	-3242	2	49
D:	2945.07	-1787	-252	-16425	82	42	-54	-1293	-186	-3242	3	49
D:	2946.67	-1765	-315	-16297	82	42	-54	-1293	-186	-3242	0	49
D:	2948.23	-1765	-315	-16297	68	132	-41	-1293	-186	-3242	1	49
D:	2950.04	-1857	-225	-16404	68	132	-41	-1293	-186	-3242	0	49
D:	2951.59	-1857	-225	-16404	68	113	-31	-1293	-186	-3242	2	49
D:	2953.15	-1857	-225	-16404	42	113	-31	-1293	-186	-3242	3	49
D:	2954.87	-1721	-203	-16327	42	113	-31	-1293	-186	-3242	2	49
D:	2956.46	-1721	-203	-16327	23	63	-116	-1293	-186	-3242	1	49
D:	2958.13	-1838	-261	-16590	23	63	-116	-1292	-211	-3331	0	49
D:	2959.83	-1838	-261	-16590	23	120	-85	-1292	-211	-3331	1	49
D:	2961.37	-1838	-261	-16590	-18	120	-85	-1292	-211	-3331	3	49
D:	2962.94	-1693	-271	-16143	-18	120	-85	-1292	-211	-3331	2	49
D:	2964.50	-1693	-271	-16143	-59	14	-94	-1292	-211	-3331	1	49
D:	2966.05	-1517	-214	-16142	-59	14	-94	-1292	-211	-3331	0	49
D:	2967.67	-1517	-214	-16142	-59	-60	-88	-1292	-211	-3331	2	49
D:	2969.21	-1517	-214	-16142	-58	-60	-88	-1292	-211	-3331	3	49
D:	2970.82	-1757	-292	-16400	-58	-60	-88	-1292	-211	-3331	2	49
D:	2972.38	-1757	-292	-16400	66	10	-2	-1292	-211	-3331	1	49
D:	2974.09	-1690	-253	-16472	66	10	-2	-1292	-211	-3331	0	49
D:	2975.68	-1690	-253	-16472	66	36	-51	-1292	-211	-3331	2	49
D:	2977.25	-1690	-253	-16472	102	36	-51	-1281	-189	-3506	3	49
D:	2978.82	-1723	-62	-16002	102	36	-51	-1281	-189	-3506	2	49
D:	2980.34	-1723	-62	-16002	-29	31	-120	-1281	-189	-3506	1	49
D:	2981.94	-1894	-312	-16159	-29	31	-120	-1281	-189	-3506	0	49
D:	2983.50	-1894	-312	-16159	-29	31	-120	-1281	-189	-3506	2	49
D:	2985.06	-1894	-312	-16159	-65	57	-44	-1281	-189	-3506	3	49
D:	2986.67	-1629	-317	-16667	-65	57	-44	-1281	-189	-3506	0	49
D:	2988.21	-1629	-317	-16667	-12	34	-43	-1281	-189	-3506	1	49
D:	2989.83	-1807	-324	-16625	-12	34	-43	-1281	-189	-3506	0	49
D:	2991.38	-1807	-324	-16625	-12	34	-43	-1281	-189	-3506	2	49
D:	2992.97	-1807	-324	-16625	35	66	-98	-1281	-189	-3506	3	49
D:	2994.52	-1574	-153	-16473	35	66	-98	-1281	-189	-3506	0	50
D:	2996.09	-1574	-153	-16473	65	66	-11	-1281	-189	-3506	1	50
D:	2997.67	-1713	-315	-16314	65	66	-11	-1289	-208	-3262	3	50
D:	2999.29	-1713	-315	-16314	65	66	-11	-1289	-208	-3262	2	50
D:	3000.98	-1713	-315	-16314	-35	93	-30	-1289	-208	-3262	3	50
D:	3002.53	-1478	-382	-16611	-35	93	-30	-1289	-208	-3262	0	50
D:	3004.17	-1478	-382	-16611	38	44	-164	-1289	-208	-3262	1	50
D:	3005.77	-1835	-195	-16373	38	44	-164	-1289	-208	-3262	0	50
D:	3007.34	-1835	-195	-16373	38	44	-164	-1289	-208	-3262	2	50
D:	3008.97	-1835	-195	-16373	-129	37	-123	-1289	-208	-3262	3	50
D:	3010.55	-1634	-75	-16420	-129	37	-123	-1289	-208	-3262	0	50
D:	3012.16	-1634	-75	-16420	-184	-37	-71	-1289	-208	-3262	1	50
D:	3013.77	-1631	-241	-16160	-184	-37	-71	-1289	-208	-3262	0	50
D:	3015.36	-1631	-241	-16160	-184	-37	-71	-1289	-208	-3262	2	50
D:	3016.94	-1631	-241	-16160	-187	-87	-73	-1292	-195	-3266	3	50
D:	3018.49	-1595	-217	-16353	-187	-87	-73	-1292	-195	-3266	0	50
D:	3020.05	-1595	-217	-16353	-103	66	-149	-1292	-195	-3266	1	50
D:	3021.61	-1560	-369	-16511	-103	66	-149	-1292	-195	-3266	3	50
D:	3023.17	-1560	-369	-16511	-103	66	-149	-1292	-195	-3266	2	50
D:	3024.82	-1560	-369	-16511	-124	11	-76	-1292	-195	-3266	3	50
D:	3026.50	-1783	-179	-16247	-124	11	-76	-1292	-195	-3266	0	50
D:	3028.05	-1783	-179	-16247	-21	-37	-127	-1292	-195	-3266	1	50
D:	3029.59	-1822	-381	-16551	-21	-37	-127	-1292	-195	-3266	3	50
D:	3031.18	-1822	-381	-16551	-21	-37	-127	-1292	-195	-3266	2	50
D:	3032.93	-1822	-381	-16551	-53	68	-169	-1292	-195	-3266	3	50
D:	3034.58	-1687	-387	-16397	-53	68	-169	-1292	-195	-3266	0	50
D:	3036.17	-1687	-387	-16397	-140	-2	-90	-1292	-195	-3266	1	50
D:	3037.77	-1805	-158	-15943	-140	-2	-90	-1296	-200	-3424	0	50
D:	3039.33	-1805	-158	-15943	-140	-2	-90	-1296	-200	-3424	2	49
D:	3041.01	-1805	-158	-15943	-159	-24	-92	-1296	-200	-3424	3	49
D:	3042.56	-1775	-230	-16291	-159	-24	-92	-1296	-200	-3424	0	49
D:	3044.12	-1775	-230	-16291	-71	60	-139	-1296	-200	-3424	1	49
D:	3045.67	-1682	-247	-16430	-71	60	-139	-1296	-200	-3424	3	49
D:	3047.23	-1682	-247	-16430	-71	60	-139	-1296	-200	-3424	2	49
D:	3048.83	-1682	-247	-16430	-217	109	-77	-1296	-200	-3424	3	49
D:	3050.59	-1779	-276	-16391	-217	109	-77	-1296	-200	-3424	0	49
D:	3052.17	-1779	-276	-16391	-197	0	-155	-1296	-200	-3424	1	49
D:	3053.76	-1776	-251	-16400	-197	0	-155	-1296	-200	-3424	0	49
D:	3055.50	-1776	-251	-16400	-197	0	-155	-1296	-200	-3424	2	49
D:	3057.05	-1776	-251	-16400	-200	37	-84	-1294	-184	-3316	3	49
D:	3058.72	-1515	-182	-16075	-200	37	-84	-1294	-184	-3316	2	49
D:	3060.35	-1515	-182	-16075	-140	-93	-30	-1294	-184	-3316	1	49
D:	3061.95	-1720	-404	-16301	-140	-93	-30	-1294	-184	-3316	0	49
D:	3063.47	-1720	-404	-16301	-140	-93	-30	-1294	-184	-3316	2	49
D:	3065.07	-1720	-404	-16301	-13	28	-71	-1294	-184	-3316	3	49
