Syntax version=4
Thu Mar 15 12:28:39 2018
Starting process (2648443 clocks per sec)

LogRawData=false
VarHeader=1
D:		imu_acc_x	imu_acc_y	imu_acc_z	imu_gyro_x	imu_gyro_y	imu_gyro_z	imu_mag_x	imu_mag_y	imu_mag_z
D:	time(ms)	(0x20000230,3)	(0x20000232,3)	(0x20000234,3)	(0x2000022a,3)	(0x2000022c,3)	(0x2000022e,3)	(0x20000236,3)	(0x20000238,3)	(0x2000023a,3)
D:	0.08	4753	8272	12104	-38	-39	-439	-5379	-3083	1758
D:	1.44	4815	8646	12365	-38	-39	-439	-5379	-3083	1758
D:	2.63	4815	8646	12365	-38	-39	-439	-5379	-3083	1758
D:	3.53	4815	8646	12365	-38	2	-572	-5379	-3083	1758
D:	4.53	5202	8531	12313	97	2	-572	-5379	-3083	1758
D:	5.41	5202	8531	12313	97	2	-572	-5391	-3091	1827
D:	6.34	5202	8531	12313	97	2	-572	-5391	-3091	1827
D:	7.36	5202	8531	12313	97	2	-572	-5391	-3091	1827
D:	8.29	5202	8531	11926	92	-52	-510	-5391	-3091	1827
D:	9.50	5279	8676	11926	92	-52	-510	-5391	-3091	1827
D:	10.60	5279	8676	11926	92	-52	-510	-5391	-3091	1827
D:	11.68	5279	8676	11926	92	165	-286	-5391	-3091	1827
D:	12.69	4967	8884	12643	-119	165	-286	-5391	-3091	1827
D:	13.95	4967	8884	12643	-119	165	-286	-5391	-3091	1827
D:	14.98	4967	8884	12643	-119	165	-286	-5391	-3091	1827
D:	15.96	4967	8884	12643	-414	308	-420	-5391	-3091	1827
D:	16.83	4928	8912	12693	-414	308	-420	-5391	-3091	1827
D:	17.70	4928	8912	12693	-414	308	-420	-5391	-3091	1827
D:	18.64	4928	8912	12693	-414	308	-420	-5391	-3091	1827
D:	19.50	4928	8912	12693	-414	308	-420	-5391	-3091	1827
D:	20.36	4928	8912	12693	-647	416	-442	-5391	-3091	1827
D:	21.23	5028	8628	12532	-647	416	-442	-5391	-3091	1827
D:	22.10	5028	8628	12532	-647	416	-442	-5391	-3091	1827
D:	22.94	5028	8628	12532	-647	416	-442	-5391	-3091	1827
D:	23.77	5028	8628	12532	-647	294	-445	-5391	-3091	1827
D:	24.60	5004	8650	12419	-800	294	-445	-5391	-3091	1827
D:	25.55	5004	8650	12419	-800	294	-445	-5386	-3091	1656
D:	26.62	5004	8650	12419	-800	294	-445	-5386	-3091	1656
D:	27.55	5004	8650	12419	-800	438	-310	-5386	-3091	1656
D:	28.50	4755	8626	12562	-866	438	-310	-5386	-3091	1656
D:	29.37	4755	8626	12562	-866	438	-310	-5386	-3091	1656
D:	30.23	4755	8626	12562	-866	438	-310	-5386	-3091	1656
D:	31.12	4755	8626	12562	-866	438	-310	-5386	-3091	1656
D:	32.09	4755	8626	12562	-1022	534	-403	-5386	-3091	1656
D:	32.93	5069	8859	12872	-1022	534	-403	-5386	-3091	1656
D:	33.88	5069	8859	12872	-1022	534	-403	-5386	-3091	1656
D:	34.94	5069	8859	12872	-1022	534	-403	-5386	-3091	1656
D:	35.85	5069	8859	12872	-1022	188	-260	-5386	-3091	1656
D:	36.70	5005	8978	11238	-796	188	-260	-5386	-3091	1656
D:	37.64	5005	8978	11238	-796	188	-260	-5386	-3091	1656
D:	38.50	5005	8978	11238	-796	188	-260	-5386	-3091	1656
D:	39.34	5005	8978	11238	-796	188	-260	-5386	-3091	1656
D:	40.18	5005	8978	11238	-1201	594	277	-5386	-3091	1656
D:	41.05	4334	7961	12329	-1201	594	277	-5386	-3091	1656
D:	41.93	4334	7961	12329	-1201	594	277	-5386	-3091	1656
D:	42.77	4334	7961	12329	-1201	594	277	-5386	-3091	1656
D:	43.60	4334	7961	12329	-1201	807	-178	-5386	-3091	1656
D:	44.50	4334	7961	13238	-1240	807	-178	-5386	-3091	1656
D:	45.33	3886	8814	13238	-1240	807	-178	-5386	-3091	1656
D:	46.37	3886	8814	13238	-1240	807	-178	-5392	-3112	1541
D:	47.41	3886	8814	13238	-1240	101	-238	-5392	-3112	1541
D:	48.56	5242	8879	12811	-853	101	-238	-5392	-3112	1541
D:	49.57	5242	8879	12811	-853	101	-238	-5392	-3112	1541
D:	50.50	5242	8879	12811	-853	101	-238	-5392	-3112	1541
D:	51.39	5242	8879	12811	-853	101	-238	-5392	-3112	1541
D:	52.25	5242	8879	12811	-1106	-123	-183	-5392	-3112	1541
D:	53.13	5219	8554	12333	-1106	-123	-183	-5392	-3112	1541
D:	54.08	5219	8554	12333	-1106	-123	-183	-5392	-3112	1541
D:	54.92	5219	8554	12333	-1106	-123	-183	-5392	-3112	1541
D:	55.87	5219	8554	12333	-850	46	-155	-5392	-3112	1541
D:	56.87	4989	8360	12234	-992	46	-155	-5392	-3112	1541
D:	57.77	4989	8360	12234	-992	46	-155	-5392	-3112	1541
D:	58.65	4989	8360	12234	-992	46	-155	-5392	-3112	1541
D:	59.51	4989	8360	12234	-992	46	-155	-5392	-3112	1541
D:	60.38	4989	8360	12234	-750	114	-216	-5392	-3112	1541
D:	61.20	5053	7883	12467	-750	114	-216	-5392	-3112	1541
D:	62.05	5053	7883	12467	-750	114	-216	-5392	-3112	1541
D:	63.00	5053	7883	12467	-750	114	-216	-5392	-3112	1541
D:	63.86	5053	7883	12467	-750	-669	-133	-5392	-3112	1541
D:	64.72	6558	12006	19048	-726	-669	-133	-5392	-3112	1541
D:	65.60	6558	12006	19048	-726	-669	-133	-5390	-3101	1686
D:	66.50	6558	12006	19048	-726	-669	-133	-5390	-3101	1686
D:	67.55	6558	12006	19048	-726	-2724	75	-5390	-3101	1686
D:	68.58	5074	8139	10407	-2428	-2724	75	-5390	-3101	1686
D:	69.58	5074	8139	10407	-2428	-2724	75	-5390	-3101	1686
D:	70.50	5074	8139	10407	-2428	-2724	75	-5390	-3101	1686
D:	71.48	5074	8139	10407	-2428	-2724	75	-5390	-3101	1686
D:	72.34	5074	8139	10407	-2945	-2262	-137	-5390	-3101	1686
D:	73.20	7111	6203	7204	-2945	-2262	-137	-5390	-3101	1686
D:	74.05	7111	6203	7204	-2945	-2262	-137	-5390	-3101	1686
D:	74.93	7111	6203	7204	-2945	-2262	-137	-5390	-3101	1686
D:	75.86	7111	6203	7204	-1665	1501	-745	-5390	-3101	1686
D:	76.98	5927	8416	11452	-1720	1501	-745	-5390	-3101	1686
D:	78.16	5927	8416	11452	-1720	1501	-745	-5390	-3101	1686
D:	79.02	5927	8416	11452	-1720	1501	-745	-5390	-3101	1686
D:	79.93	5927	8416	11452	-1650	3057	-835	-5390	-3101	1686
D:	80.80	3301	10001	14976	-1650	3057	-835	-5390	-3101	1686
D:	81.67	3301	10001	14976	-1650	3057	-835	-5390	-3101	1686
D:	82.55	3301	10001	14976	-1650	3057	-835	-5390	-3101	1686
D:	83.41	3301	10001	14976	-1650	3057	-835	-5390	-3101	1686
D:	84.31	3301	10001	14976	-2295	786	-412	-5390	-3101	1686
D:	85.17	4634	8461	14125	-2295	786	-412	-5390	-3101	1686
D:	86.28	4634	8461	14125	-2295	786	-412	-5390	-3101	1686
D:	87.23	4634	8461	14125	-2295	786	-412	-5390	-3101	1686
D:	88.29	4634	8461	14125	-2747	-743	-692	-5390	-3101	1686
D:	89.21	5741	7811	10141	-2747	-743	-692	-5390	-3101	1686
D:	90.07	5741	7811	10141	-2747	-743	-692	-5375	-3109	1658
D:	90.96	5741	7811	10141	-2747	-743	-692	-5375	-3109	1658
D:	91.85	5741	7811	10141	-2747	784	-1063	-5375	-3109	1658
D:	92.73	6108	7899	10892	-2701	784	-1063	-5375	-3109	1658
D:	93.63	6108	7899	10892	-2701	784	-1063	-5375	-3109	1658
D:	94.50	6108	7899	10892	-2701	784	-1063	-5375	-3109	1658
D:	95.37	6108	7899	10892	-2701	784	-1063	-5375	-3109	1658
D:	96.20	6108	7899	10892	-2537	2571	-1253	-5375	-3109	1658
D:	97.21	6996	6546	14103	-2537	2571	-1253	-5375	-3109	1658
D:	98.17	6996	6546	14103	-2537	2571	-1253	-5375	-3109	1658
D:	99.02	6996	6546	14103	-2537	2571	-1253	-5375	-3109	1658
D:	99.88	6996	6546	14103	-1769	3461	-676	-5375	-3109	1658
D:	100.72	3457	10723	12639	-1716	3461	-676	-5375	-3109	1658
D:	101.64	3457	10723	12639	-1716	3461	-676	-5375	-3109	1658
D:	102.51	3457	10723	12639	-1716	3461	-676	-5375	-3109	1658
D:	103.37	3457	10723	12639	-1716	3461	-676	-5375	-3109	1658
D:	104.25	3457	10723	12639	-3412	2607	-202	-5375	-3109	1658
D:	105.10	3758	7853	12674	-3412	2607	-202	-5375	-3109	1658
D:	105.95	3758	7853	12674	-3412	2607	-202	-5375	-3109	1658
D:	107.07	3758	7853	12674	-3412	2607	-202	-5375	-3109	1658
D:	108.02	3758	7853	12674	-3749	1970	-761	-5375	-3109	1658
D:	109.07	4770	7255	12215	-3749	1970	-761	-5375	-3109	1658
D:	109.96	4770	7255	12215	-3749	1970	-761	-5372	-3091	1708
D:	110.80	4770	7255	12215	-3749	1970	-761	-5372	-3091	1708
D:	111.68	4770	7255	12215	-3749	2339	-1066	-5372	-3091	1708
D:	112.95	4354	8643	12466	-2764	2339	-1066	-5372	-3091	1708
D:	113.96	4354	8643	12466	-2764	2339	-1066	-5372	-3091	1708
D:	114.82	4354	8643	12466	-2764	2339	-1066	-5372	-3091	1708
D:	115.67	4354	8643	12466	-2764	3039	-878	-5372	-3091	1708
D:	116.55	4263	8564	13667	-2411	3039	-878	-5372	-3091	1708
D:	117.41	4263	8564	13667	-2411	3039	-878	-5372	-3091	1708
D:	118.27	4263	8564	13667	-2411	3039	-878	-5372	-3091	1708
D:	119.15	4263	8564	13667	-2411	3039	-878	-5372	-3091	1708
D:	120.07	4263	8564	13667	-3023	2537	-928	-5372	-3091	1708
D:	120.93	4194	8494	13425	-3023	2537	-928	-5372	-3091	1708
D:	121.77	4194	8494	13425	-3023	2537	-928	-5372	-3091	1708
D:	122.62	4194	8494	13425	-3023	2537	-928	-5372	-3091	1708
D:	123.49	4194	8494	13425	-3023	2537	-928	-5372	-3091	1708
D:	124.36	4194	8494	13425	-3146	1376	-929	-5372	-3091	1708
D:	125.20	4620	8328	13074	-3146	1376	-929	-5372	-3091	1708
D:	126.13	4620	8328	13074	-3146	1376	-929	-5372	-3091	1708
D:	127.02	4620	8328	13074	-3146	1376	-929	-5372	-3091	1708
D:	128.03	4620	8328	13074	-3177	577	-744	-5372	-3091	1708
D:	129.18	4833	8432	12066	-3177	577	-744	-5372	-3091	1708
D:	130.17	4833	8432	12066	-3177	577	-744	-5344	-3117	1714
D:	131.05	4833	8432	12066	-3177	577	-744	-5344	-3117	1714
D:	132.06	4833	8432	12066	-3260	995	-393	-5344	-3117	1714
D:	133.07	4677	7704	12218	-3260	995	-393	-5344	-3117	1714
D:	134.09	4677	7704	12218	-3260	995	-393	-5344	-3117	1714
D:	134.96	4677	7704	12218	-3260	995	-393	-5344	-3117	1714
D:	135.83	4677	7704	12218	-3260	1262	-493	-5344	-3117	1714
D:	136.70	4375	7653	13180	-3397	1262	-493	-5344	-3117	1714
D:	137.64	4375	7653	13180	-3397	1262	-493	-5344	-3117	1714
D:	138.50	4375	7653	13180	-3397	1262	-493	-5344	-3117	1714
D:	139.37	4375	7653	13180	-3397	1262	-493	-5344	-3117	1714
D:	140.23	4375	7653	13180	-2673	966	-940	-5344	-3117	1714
D:	141.11	4427	8036	13120	-2673	966	-940	-5344	-3117	1714
D:	142.07	4427	8036	13120	-2673	966	-940	-5344	-3117	1714
D:	142.93	4427	8036	13120	-2673	966	-940	-5344	-3117	1714
D:	143.80	4427	8036	13120	-2673	280	-1063	-5344	-3117	1714
D:	144.67	4803	8055	12941	-2348	280	-1063	-5344	-3117	1714
D:	145.53	4803	8055	12941	-2348	280	-1063	-5344	-3117	1714
D:	146.50	4803	8055	12941	-2348	280	-1063	-5344	-3117	1714
D:	147.57	4803	8055	12941	-2348	-358	-1012	-5344	-3117	1714
D:	148.63	5109	8333	12819	-2033	-358	-1012	-5344	-3117	1714
D:	149.62	5109	8333	12819	-2033	-358	-1012	-5325	-3111	1806
D:	150.55	5109	8333	12819	-2033	-358	-1012	-5325	-3111	1806
D:	151.42	5109	8333	12819	-2033	-358	-1012	-5325	-3111	1806
D:	152.29	5109	8333	12819	-1735	-986	-708	-5325	-3111	1806
D:	153.16	5862	8145	12082	-1735	-986	-708	-5325	-3111	1806
D:	154.04	5862	8145	12082	-1735	-986	-708	-5325	-3111	1806
D:	154.96	5862	8145	12082	-1735	-986	-708	-5325	-3111	1806
D:	155.83	5862	8145	12082	-1735	-1275	-491	-5325	-3111	1806
D:	156.70	6476	8338	12358	-1351	-1275	-491	-5325	-3111	1806
D:	157.64	6476	8338	12358	-1351	-1275	-491	-5325	-3111	1806
D:	158.70	6476	8338	12358	-1351	-1275	-491	-5325	-3111	1806
D:	159.64	6476	8338	12358	-1351	-1083	-482	-5325	-3111	1806
D:	160.49	6476	8338	11957	-1269	-1083	-482	-5325	-3111	1806
D:	161.34	6880	8492	11957	-1269	-1083	-482	-5325	-3111	1806
D:	162.17	6880	8492	11957	-1269	-1083	-482	-5325	-3111	1806
D:	163.17	6880	8492	11957	-1269	-1083	-482	-5325	-3111	1806
D:	164.23	6880	8492	11957	-1449	-600	-551	-5325	-3111	1806
D:	165.12	6780	9243	12539	-1449	-600	-551	-5325	-3111	1806
D:	166.03	6780	9243	12539	-1449	-600	-551	-5325	-3111	1806
D:	167.13	6780	9243	12539	-1449	-600	-551	-5325	-3111	1806
D:	168.30	6780	9243	13238	-1629	376	-555	-5325	-3111	1806
D:	169.35	7386	9403	13238	-1629	376	-555	-5325	-3111	1806
D:	170.20	7386	9403	13238	-1629	376	-555	-5311	-3144	1822
D:	171.09	7386	9403	13238	-1629	376	-555	-5311	-3144	1822
D:	171.96	7386	9403	13238	-1769	826	-267	-5311	-3144	1822
D:	172.80	7183	9825	13750	-1769	826	-267	-5311	-3144	1822
D:	173.68	7183	9825	13750	-1769	826	-267	-5311	-3144	1822
D:	174.60	7183	9825	13750	-1769	826	-267	-5311	-3144	1822
D:	175.49	7183	9825	13750	-1769	826	-267	-5311	-3144	1822
D:	176.37	7183	9825	13750	-2349	1068	152	-5311	-3144	1822
D:	177.20	6851	9742	14130	-2349	1068	152	-5311	-3144	1822
D:	178.07	6851	9742	14130	-2349	1068	152	-5311	-3144	1822
D:	178.96	6851	9742	14130	-2349	1068	152	-5311	-3144	1822
D:	179.80	6851	9742	14130	-2349	946	429	-5311	-3144	1822
D:	180.67	7208	9589	13320	-2972	946	429	-5311	-3144	1822
D:	181.55	7208	9589	13320	-2972	946	429	-5311	-3144	1822
D:	182.41	7208	9589	13320	-2972	946	429	-5311	-3144	1822
D:	183.28	7208	9589	13320	-2972	946	429	-5311	-3144	1822
D:	184.15	7208	9589	13320	-3319	1303	786	-5311	-3144	1822
D:	185.23	6933	9883	12973	-3319	1303	786	-5311	-3144	1822
D:	186.22	6933	9883	12973	-3319	1303	786	-5311	-3144	1822
D:	187.36	6933	9883	12973	-3319	2041	1185	-5311	-3144	1822
D:	188.43	6643	10037	13630	-3856	2041	1185	-5311	-3144	1822
D:	189.51	6643	10037	13630	-3856	2041	1185	-5293	-3086	1816
D:	190.37	6643	10037	13630	-3856	2041	1185	-5293	-3086	1816
D:	191.23	6643	10037	13630	-3856	2041	1185	-5293	-3086	1816
D:	192.11	6643	10037	13630	-5047	3104	1164	-5293	-3086	1816
D:	192.97	7209	9367	13260	-5047	3104	1164	-5293	-3086	1816
D:	193.81	7209	9367	13260	-5047	3104	1164	-5293	-3086	1816
D:	194.67	7209	9367	13260	-5047	3104	1164	-5293	-3086	1816
D:	195.73	7209	9367	13260	-5047	3711	1327	-5293	-3086	1816
D:	196.79	6583	10385	14045	-5570	3711	1327	-5293	-3086	1816
D:	197.66	6583	10385	14045	-5570	3711	1327	-5293	-3086	1816
D:	198.59	6583	10385	14045	-5570	3711	1327	-5293	-3086	1816
D:	199.50	6583	10385	14045	-5570	5009	1534	-5293	-3086	1816
D:	200.53	6820	8034	15386	-6303	5009	1534	-5293	-3086	1816
D:	201.40	6820	8034	15386	-6303	5009	1534	-5293	-3086	1816
D:	202.27	6820	8034	15386	-6303	5009	1534	-5293	-3086	1816
D:	203.15	6820	8034	15386	-6303	5009	1534	-5293	-3086	1816
D:	204.07	6820	8034	15386	-6626	4611	1049	-5293	-3086	1816
D:	204.93	5769	10860	15259	-6626	4611	1049	-5293	-3086	1816
D:	205.77	5769	10860	15259	-6626	4611	1049	-5293	-3086	1816
D:	206.62	5769	10860	15259	-6626	4611	1049	-5293	-3086	1816
D:	207.52	5769	10860	15259	-6626	4463	1212	-5293	-3086	1816
D:	208.51	6493	10615	14296	-7374	4463	1212	-5293	-3086	1816
D:	209.56	6493	10615	14296	-7374	4463	1212	-5247	-3092	1876
D:	210.50	6493	10615	14296	-7374	4463	1212	-5247	-3092	1876
D:	211.36	6493	10615	14296	-7374	4463	1212	-5247	-3092	1876
D:	212.22	6493	10615	14296	-8109	4844	2281	-5247	-3092	1876
D:	213.12	5997	10418	13921	-8109	4844	2281	-5247	-3092	1876
D:	214.05	5997	10418	13921	-8109	4844	2281	-5247	-3092	1876
D:	215.09	5997	10418	13921	-8109	4844	2281	-5247	-3092	1876
D:	216.28	5997	10418	13921	-9061	5679	3119	-5247	-3092	1876
D:	217.16	4818	9479	14691	-9061	5679	3119	-5247	-3092	1876
D:	218.09	4818	9479	14691	-9061	5679	3119	-5247	-3092	1876
D:	218.96	4818	9479	14691	-9061	5679	3119	-5247	-3092	1876
D:	219.80	4818	9479	14691	-9061	6186	3152	-5247	-3092	1876
D:	220.67	4253	8912	14715	-9573	6186	3152	-5247	-3092	1876
D:	221.55	4253	8912	14715	-9573	6186	3152	-5247	-3092	1876
D:	222.41	4253	8912	14715	-9573	6186	3152	-5247	-3092	1876
D:	223.27	4253	8912	14715	-9573	6186	3152	-5247	-3092	1876
D:	224.12	4253	8912	14715	-10264	6031	2149	-5247	-3092	1876
D:	225.18	4715	8086	13049	-10264	6031	2149	-5247	-3092	1876
D:	226.38	4715	8086	13049	-10264	6031	2149	-5247	-3092	1876
D:	227.26	4715	8086	13049	-10264	6031	2149	-5247	-3092	1876
D:	228.23	4715	8086	13049	-9646	5823	2557	-5247	-3092	1876
D:	229.12	4938	8198	12718	-9646	5823	2557	-5247	-3092	1876
D:	230.07	4938	8198	12718	-9646	5823	2557	-5247	-3007	2234
D:	230.94	4938	8198	12718	-9646	5823	2557	-5247	-3007	2234
D:	231.77	4938	8198	12718	-9646	6654	3182	-5247	-3007	2234
D:	232.65	4699	8177	13861	-9426	6654	3182	-5247	-3007	2234
D:	233.55	4699	8177	13861	-9426	6654	3182	-5219	-3007	2234
D:	234.41	4699	8177	13861	-9426	6654	3182	-5219	-3007	2234
D:	235.25	4699	8177	13861	-9426	6654	3182	-5219	-3007	2234
D:	236.15	4699	8177	13861	-9339	7475	2075	-5219	-3007	2234
D:	237.03	3776	9294	13600	-9339	7475	2075	-5219	-3007	2234
D:	237.95	3776	9294	13600	-9339	7475	2075	-5219	-3007	2234
D:	238.78	3776	9294	13600	-9339	7475	2075	-5219	-3007	2234
D:	239.65	3776	9294	13600	-9339	9485	374	-5219	-3007	2234
D:	240.55	8357	6797	12444	-9483	9485	374	-5219	-3007	2234
D:	241.41	8357	6797	12444	-9483	9485	374	-5219	-3007	2234
D:	242.29	8357	6797	12444	-9483	9485	374	-5219	-3007	2234
D:	243.47	8357	6797	12444	-9483	10456	1821	-5219	-3007	2234
D:	244.60	3930	7972	14021	-8970	10456	1821	-5219	-3007	2234
D:	245.51	3930	7972	14021	-8970	10456	1821	-5219	-3007	2234
D:	246.36	3930	7972	14021	-8970	10456	1821	-5219	-3007	2234
D:	247.20	3930	7972	14021	-8970	10456	1821	-5219	-3007	2234
D:	248.09	3930	7972	14021	-9611	9329	2377	-5219	-3007	2234
D:	249.16	3080	7335	13778	-9611	9329	2377	-5219	-3007	2234
D:	250.06	3080	7335	13778	-9611	9329	2377	-5219	-3007	2234
D:	250.93	3080	7335	13778	-9611	9329	2377	-5219	-3007	2234
D:	251.80	3080	7335	13778	-9611	8914	1525	-5219	-3007	2234
D:	252.78	3264	5795	12646	-11845	8914	1525	-5219	-3007	2234
D:	253.80	3264	5795	12646	-11845	8914	1525	-5155	-2999	2311
D:	254.73	3264	5795	12646	-11845	8914	1525	-5155	-2999	2311
D:	255.64	3264	5795	12646	-11845	8327	577	-5155	-2999	2311
D:	256.50	3264	5795	11509	-11811	8327	577	-5155	-2999	2311
D:	257.34	2870	5532	11509	-11811	8327	577	-5155	-2999	2311
D:	258.22	2870	5532	11509	-11811	8327	577	-5155	-2999	2311
D:	259.21	2870	5532	11509	-11811	8327	577	-5155	-2999	2311
D:	260.24	2870	5532	11509	-11210	8642	1877	-5155	-2999	2311
D:	261.14	1687	6070	12194	-11210	8642	1877	-5155	-2999	2311
D:	262.15	1687	6070	12194	-11210	8642	1877	-5155	-2999	2311
D:	263.12	1687	6070	12194	-11210	8642	1877	-5155	-2999	2311
D:	264.15	1687	6070	12194	-8036	6976	3743	-5155	-2999	2311
D:	265.19	1944	8445	12584	-8036	6976	3743	-5155	-2999	2311
D:	266.02	1944	8445	12584	-8036	6976	3743	-5155	-2999	2311
D:	266.89	1944	8445	12584	-8036	6976	3743	-5155	-2999	2311
D:	267.78	1944	8445	12584	-8036	8220	4665	-5155	-2999	2311
D:	268.69	3553	5851	14120	-8737	8220	4665	-5155	-2999	2311
D:	269.72	3553	5851	14120	-8737	8220	4665	-5155	-2999	2311
D:	270.68	3553	5851	14120	-8737	8220	4665	-5155	-2999	2311
D:	271.55	3553	5851	14120	-8737	9910	3145	-5155	-2999	2311
D:	272.41	3553	5851	14120	-10881	9910	3145	-5155	-2999	2311
D:	273.27	590	2945	13644	-10881	9910	3145	-5155	-2999	2311
D:	274.15	590	2945	13644	-10881	9910	3145	-5083	-2890	2521
D:	275.07	590	2945	13644	-10881	9910	3145	-5083	-2890	2521
D:	275.95	590	2945	13644	-9090	6953	2167	-5083	-2890	2521
D:	276.80	154	4166	13244	-9090	6953	2167	-5083	-2890	2521
D:	277.69	154	4166	13244	-9090	6953	2167	-5083	-2890	2521
D:	278.64	154	4166	13244	-9090	6953	2167	-5083	-2890	2521
D:	279.55	154	4166	13244	-9090	5691	858	-5083	-2890	2521
D:	280.40	651	4114	13334	-8137	5691	858	-5083	-2890	2521
D:	281.60	651	4114	13334	-8137	5691	858	-5083	-2890	2521
D:	282.60	651	4114	13334	-8137	5691	858	-5083	-2890	2521
D:	283.49	651	4114	13334	-8137	5691	858	-5083	-2890	2521
D:	284.35	651	4114	13334	-8318	5725	-572	-5083	-2890	2521
D:	285.23	811	4113	13122	-8318	5725	-572	-5083	-2890	2521
D:	286.14	811	4113	13122	-8318	5725	-572	-5083	-2890	2521
D:	287.24	811	4113	13122	-8318	5725	-572	-5083	-2890	2521
D:	288.33	811	4113	13122	-6923	4475	-425	-5083	-2890	2521
D:	289.34	1179	4214	12608	-6923	4475	-425	-5083	-2890	2521
D:	290.23	1179	4214	12608	-6923	4475	-425	-5083	-2890	2521
D:	291.08	1179	4214	12608	-6923	4475	-425	-5083	-2890	2521
D:	291.93	1179	4214	12608	-5916	4045	-148	-5083	-2890	2521
D:	292.77	1166	4405	13100	-5916	4045	-148	-5083	-2890	2521
D:	293.72	1166	4405	13100	-5916	4045	-148	-5014	-2893	2748
D:	294.81	1166	4405	13100	-5916	4045	-148	-5014	-2893	2748
D:	295.75	1166	4405	13100	-5916	4963	-488	-5014	-2893	2748
D:	296.63	1491	5239	14167	-5858	4963	-488	-5014	-2893	2748
D:	297.60	1491	5239	14167	-5858	4963	-488	-5014	-2893	2748
D:	298.49	1491	5239	14167	-5858	4963	-488	-5014	-2893	2748
D:	299.36	1491	5239	14167	-5858	4963	-488	-5014	-2893	2748
D:	300.25	1491	5239	14167	-6756	5228	-1969	-5014	-2893	2748
D:	301.13	832	3770	14403	-6756	5228	-1969	-5014	-2893	2748
D:	302.06	832	3770	14403	-6756	5228	-1969	-5014	-2893	2748
D:	302.93	832	3770	14403	-6756	5228	-1969	-5014	-2893	2748
D:	303.77	832	3770	14403	-6756	3966	-2471	-5014	-2893	2748
D:	304.65	1083	4654	14557	-6264	3966	-2471	-5014	-2893	2748
D:	305.55	1083	4654	14557	-6264	3966	-2471	-5014	-2893	2748
D:	306.51	1083	4654	14557	-6264	3966	-2471	-5014	-2893	2748
D:	307.42	1083	4654	14557	-6264	3966	-2471	-5014	-2893	2748
D:	308.40	1083	4654	14557	-5074	2854	-2218	-5014	-2893	2748
D:	309.32	912	4298	15327	-5074	2854	-2218	-5014	-2893	2748
D:	310.18	912	4298	15327	-5074	2854	-2218	-5014	-2893	2748
D:	311.05	912	4298	15327	-5074	2854	-2218	-5014	-2893	2748
D:	311.93	912	4298	15327	-5074	3282	-2971	-5014	-2893	2748
D:	312.77	-1373	3715	17022	-4940	3282	-2971	-5014	-2893	2748
D:	313.63	-1373	3715	17022	-4940	3282	-2971	-4959	-2863	2642
D:	314.55	-1373	3715	17022	-4940	3282	-2971	-4959	-2863	2642
D:	315.41	-1373	3715	17022	-4940	3282	-2971	-4959	-2863	2642
D:	316.28	-1373	3715	17022	-5477	3955	-4210	-4959	-2863	2642
D:	317.15	1445	5051	16855	-5477	3955	-4210	-4959	-2863	2642
D:	318.07	1445	5051	16855	-5477	3955	-4210	-4959	-2863	2642
D:	318.95	1445	5051	16855	-5477	3955	-4210	-4959	-2863	2642
D:	319.82	1445	5051	16855	-5477	-513	-5720	-4959	-2863	2642
D:	320.70	4625	8939	15190	-5220	-513	-5720	-4959	-2863	2642
D:	321.64	4625	8939	15190	-5220	-513	-5720	-4959	-2863	2642
D:	322.51	4625	8939	15190	-5220	-513	-5720	-4959	-2863	2642
D:	323.55	4625	8939	15190	-5220	-2264	-2768	-4959	-2863	2642
D:	324.70	5470	9105	14477	-4046	-2264	-2768	-4959	-2863	2642
D:	325.73	5470	9105	14477	-4046	-2264	-2768	-4959	-2863	2642
D:	326.71	5470	9105	14477	-4046	-2264	-2768	-4959	-2863	2642
D:	327.62	5470	9105	14477	-4046	-944	-2372	-4959	-2863	2642
D:	328.52	4402	6037	14357	-5731	-944	-2372	-4959	-2863	2642
D:	329.43	4402	6037	14357	-5731	-944	-2372	-4959	-2863	2642
D:	330.32	4402	6037	14357	-5731	-944	-2372	-4959	-2863	2642
D:	331.20	4402	6037	14357	-5731	-944	-2372	-4959	-2863	2642
D:	332.09	4402	6037	14357	-7479	1470	-2549	-4959	-2863	2642
D:	332.94	3965	5465	13899	-7479	1470	-2549	-4959	-2863	2642
D:	333.77	3965	5465	13899	-7479	1470	-2549	-4922	-2925	2802
D:	334.62	3965	5465	13899	-7479	1470	-2549	-4922	-2925	2802
D:	335.49	3965	5465	13899	-7479	1470	-2549	-4922	-2925	2802
D:	336.36	3965	5465	13899	-6699	2255	-2644	-4922	-2925	2802
D:	337.20	4171	5536	13496	-6699	2255	-2644	-4922	-2925	2802
D:	338.05	4171	5536	13496	-6699	2255	-2644	-4922	-2925	2802
D:	338.93	4171	5536	13496	-6699	2255	-2644	-4922	-2925	2802
D:	339.99	4171	5536	13496	-6537	3294	-2295	-4922	-2925	2802
D:	341.07	3872	5746	14005	-6537	3294	-2295	-4922	-2925	2802
D:	341.99	3872	5746	14005	-6537	3294	-2295	-4922	-2925	2802
D:	342.82	3872	5746	14005	-6537	3294	-2295	-4922	-2925	2802
D:	343.68	3872	5746	14005	-6537	3971	-1909	-4922	-2925	2802
D:	344.56	3426	5450	14686	-6863	3971	-1909	-4922	-2925	2802
D:	345.51	3426	5450	14686	-6863	3971	-1909	-4922	-2925	2802
D:	346.38	3426	5450	14686	-6863	3971	-1909	-4922	-2925	2802
D:	347.33	3426	5450	14686	-6863	3971	-1909	-4922	-2925	2802
D:	348.23	3426	5450	14686	-7091	3817	-2199	-4922	-2925	2802
D:	349.11	3285	5818	15246	-7091	3817	-2199	-4922	-2925	2802
D:	349.97	3285	5818	15246	-7091	3817	-2199	-4922	-2925	2802
D:	350.80	3285	5818	15246	-7091	3817	-2199	-4922	-2925	2802
D:	351.64	3285	5818	15246	-7091	3348	-2960	-4922	-2925	2802
D:	352.51	4299	5308	15138	-7578	3348	-2960	-4922	-2925	2802
D:	353.35	4299	5308	15138	-7578	3348	-2960	-4922	-2925	2802
D:	354.25	4299	5308	15138	-7578	3348	-2960	-4849	-2899	2934
D:	355.14	4299	5308	15138	-7578	3348	-2960	-4849	-2899	2934
D:	356.10	4299	5308	15138	-7396	3031	-2825	-4849	-2899	2934
D:	356.96	4683	5734	14361	-7396	3031	-2825	-4849	-2899	2934
D:	357.83	4683	5734	14361	-7396	3031	-2825	-4849	-2899	2934
D:	358.67	4683	5734	14361	-7396	3031	-2825	-4849	-2899	2934
D:	359.55	4683	5734	14361	-7396	3414	-1869	-4849	-2899	2934
D:	360.41	4683	5734	14361	-7170	3414	-1869	-4849	-2899	2934
D:	361.27	4345	5933	13977	-7170	3414	-1869	-4849	-2899	2934
D:	362.16	4345	5933	13977	-7170	3414	-1869	-4849	-2899	2934
D:	363.01	4345	5933	13977	-7170	3414	-1869	-4849	-2899	2934
D:	364.06	4345	5933	13977	-6961	3685	-1141	-4849	-2899	2934
D:	364.92	4029	5801	14446	-6961	3685	-1141	-4849	-2899	2934
D:	365.97	4029	5801	14446	-6961	3685	-1141	-4849	-2899	2934
D:	367.05	4029	5801	14446	-6961	3685	-1141	-4849	-2899	2934
D:	368.04	4029	5801	14446	-7397	3979	-553	-4849	-2899	2934
D:	369.17	3336	5362	14968	-7397	3979	-553	-4849	-2899	2934
D:	370.06	3336	5362	14968	-7397	3979	-553	-4849	-2899	2934
D:	370.95	3336	5362	14968	-7397	3979	-553	-4849	-2899	2934
D:	371.82	3336	5362	14968	-7397	3796	-490	-4849	-2899	2934
D:	372.70	3009	4962	14079	-7547	3796	-490	-4849	-2899	2934
D:	373.64	3009	4962	14079	-7547	3796	-490	-4803	-2913	3021
D:	374.49	3009	4962	14079	-7547	3796	-490	-4803	-2913	3021
D:	375.39	3009	4962	14079	-7547	3796	-490	-4803	-2913	3021
D:	376.28	3009	4962	14079	-7127	3466	-529	-4803	-2913	3021
D:	377.15	3239	4619	13039	-7127	3466	-529	-4803	-2913	3021
D:	378.19	3239	4619	13039	-7127	3466	-529	-4803	-2913	3021
D:	379.26	3239	4619	13039	-7127	3466	-529	-4803	-2913	3021
D:	380.16	3239	4619	13039	-6814	3839	-511	-4803	-2913	3021
D:	381.09	3197	5349	13540	-6814	3839	-511	-4803	-2913	3021
D:	381.95	3197	5349	13540	-6814	3839	-511	-4803	-2913	3021
D:	382.82	3197	5349	13540	-6814	3839	-511	-4803	-2913	3021
D:	383.69	3197	5349	13540	-6814	5368	-810	-4803	-2913	3021
D:	384.60	3469	5928	12697	-7353	5368	-810	-4803	-2913	3021
D:	385.54	3469	5928	12697	-7353	5368	-810	-4803	-2913	3021
D:	386.61	3469	5928	12697	-7353	5368	-810	-4803	-2913	3021
D:	387.67	3469	5928	12697	-7353	6086	61	-4803	-2913	3021
D:	388.66	2673	5206	14010	-6835	6086	61	-4803	-2913	3021
D:	389.67	2673	5206	14010	-6835	6086	61	-4803	-2913	3021
D:	390.55	2673	5206	14010	-6835	6086	61	-4803	-2913	3021
D:	391.39	2673	5206	14010	-6835	6086	61	-4803	-2913	3021
D:	392.25	2673	5206	14010	-6708	6873	1389	-4803	-2913	3021
D:	393.12	2900	3840	16170	-6708	6873	1389	-4803	-2913	3021
D:	394.27	2900	3840	16170	-6708	6873	1389	-4803	-2843	3097
D:	395.33	2900	3840	16170	-6708	6873	1389	-4803	-2843	3097
D:	396.27	2900	3840	16170	-7172	6592	1539	-4803	-2843	3097
D:	397.12	2306	4344	14958	-7172	6592	1539	-4803	-2843	3097
D:	398.05	2306	4344	14958	-7172	6592	1539	-4723	-2843	3097
D:	398.95	2306	4344	14958	-7172	6592	1539	-4723	-2843	3097
D:	399.82	2306	4344	14958	-7172	6320	629	-4723	-2843	3097
D:	400.67	935	2211	13769	-8418	6320	629	-4723	-2843	3097
D:	401.55	935	2211	13769	-8418	6320	629	-4723	-2843	3097
D:	402.40	935	2211	13769	-8418	6320	629	-4723	-2843	3097
D:	403.27	935	2211	13769	-8418	6320	629	-4723	-2843	3097
D:	404.15	935	2211	13769	-7920	5326	1171	-4723	-2843	3097
D:	405.02	1010	1638	12818	-7920	5326	1171	-4723	-2843	3097
D:	406.18	1010	1638	12818	-7920	5326	1171	-4723	-2843	3097
D:	407.10	1010	1638	12818	-7920	5326	1171	-4723	-2843	3097
D:	408.27	1010	1638	12818	-6178	3750	2210	-4723	-2843	3097
D:	409.37	608	2235	12589	-6178	3750	2210	-4723	-2843	3097
D:	410.33	608	2235	12589	-6178	3750	2210	-4723	-2843	3097
D:	411.25	608	2235	12589	-6178	3750	2210	-4723	-2843	3097
D:	412.10	608	2235	12589	-5567	3965	1789	-4723	-2843	3097
D:	413.03	-26	1806	12516	-5567	3965	1789	-4723	-2843	3097
D:	413.93	-26	1806	12516	-5567	3965	1789	-4723	-2843	3097
D:	414.80	-26	1806	12516	-5567	3965	1789	-4723	-2843	3097
D:	415.67	-26	1806	12516	-5567	3933	1722	-4723	-2843	3097
D:	416.55	455	1765	12955	-4428	3933	1722	-4723	-2843	3097
D:	417.39	455	1765	12955	-4428	3933	1722	-4723	-2843	3097
D:	418.24	455	1765	12955	-4428	3933	1722	-4673	-2824	3343
D:	419.10	455	1765	12955	-4428	3933	1722	-4673	-2824	3343
D:	419.94	455	1765	12955	-3380	3449	2218	-4673	-2824	3343
D:	420.80	876	2327	14657	-3380	3449	2218	-4673	-2824	3343
D:	421.65	876	2327	14657	-3380	3449	2218	-4673	-2824	3343
D:	422.55	876	2327	14657	-3380	3449	2218	-4673	-2824	3343
D:	423.39	876	2327	14657	-3380	3449	2218	-4673	-2824	3343
D:	424.23	876	2327	14657	-3077	2468	2404	-4673	-2824	3343
D:	425.08	1156	2815	14600	-3077	2468	2404	-4673	-2824	3343
D:	426.14	1156	2815	14600	-3077	2468	2404	-4673	-2824	3343
D:	427.05	1156	2815	14600	-3077	2468	2404	-4673	-2824	3343
D:	428.14	1156	2815	14600	-2562	1447	2284	-4673	-2824	3343
D:	429.34	1192	3944	15328	-2562	1447	2284	-4673	-2824	3343
D:	430.45	1192	3944	15328	-2562	1447	2284	-4673	-2824	3343
D:	431.51	1192	3944	15328	-2562	851	2030	-4673	-2824	3343
D:	432.41	1192	3944	15328	-2718	851	2030	-4673	-2824	3343
D:	433.28	3144	4736	15627	-2718	851	2030	-4673	-2824	3343
D:	434.25	3144	4736	15627	-2718	851	2030	-4673	-2824	3343
D:	435.13	3144	4736	15627	-2718	851	2030	-4673	-2824	3343
D:	436.09	3144	4736	15627	-3257	1079	1790	-4673	-2824	3343
D:	436.96	4229	4557	15557	-3257	1079	1790	-4673	-2824	3343
D:	437.82	4229	4557	15557	-3257	1079	1790	-4663	-2742	3234
D:	438.70	4229	4557	15557	-3257	1079	1790	-4663	-2742	3234
D:	439.60	4229	4557	15557	-3257	1573	1257	-4663	-2742	3234
D:	440.49	4229	4557	16042	-3859	1573	1257	-4663	-2742	3234
D:	441.39	3816	5570	16042	-3859	1573	1257	-4663	-2742	3234
D:	442.41	3816	5570	16042	-3859	1573	1257	-4663	-2742	3234
D:	443.38	3816	5570	16042	-3859	1573	1257	-4663	-2742	3234
D:	444.40	3816	5570	16042	-5233	2756	789	-4663	-2742	3234
D:	445.34	3969	5353	16156	-5233	2756	789	-4663	-2742	3234
D:	446.50	3969	5353	16156	-5233	2756	789	-4663	-2742	3234
D:	447.62	3969	5353	16156	-5233	3175	530	-4663	-2742	3234
D:	448.58	2790	4403	15684	-6470	3175	530	-4663	-2742	3234
D:	449.71	2790	4403	15684	-6470	3175	530	-4663	-2742	3234
D:	450.60	2790	4403	15684	-6470	3175	530	-4663	-2742	3234
D:	451.49	2790	4403	15684	-6470	3031	652	-4663	-2742	3234
D:	452.56	2248	4270	15432	-6347	3031	652	-4663	-2742	3234
D:	453.52	2248	4270	15432	-6347	3031	652	-4663	-2742	3234
D:	454.43	2248	4270	15432	-6347	3031	652	-4663	-2742	3234
D:	455.32	2248	4270	15432	-6347	3031	652	-4663	-2742	3234
D:	456.18	2248	4270	15432	-5869	2180	839	-4663	-2742	3234
D:	457.05	2141	3883	15025	-5869	2180	839	-4663	-2742	3234
D:	457.93	2141	3883	15025	-5869	2180	839	-4632	-2702	3463
D:	458.81	2141	3883	15025	-5869	2180	839	-4632	-2702	3463
D:	459.65	2141	3883	15025	-5869	1550	1095	-4632	-2702	3463
D:	460.55	2168	3451	15214	-5474	1550	1095	-4632	-2702	3463
D:	461.41	2168	3451	15214	-5474	1550	1095	-4632	-2702	3463
D:	462.28	2168	3451	15214	-5474	1550	1095	-4632	-2702	3463
D:	463.13	2168	3451	15214	-5474	1550	1095	-4632	-2702	3463
D:	464.07	2168	3451	15214	-4907	1250	1361	-4632	-2702	3463
D:	464.93	2748	3361	14559	-4907	1250	1361	-4632	-2702	3463
D:	465.81	2748	3361	14559	-4907	1250	1361	-4632	-2702	3463
D:	466.75	2748	3361	14559	-4907	1250	1361	-4632	-2702	3463
D:	467.62	2748	3361	14559	-4907	1366	1801	-4632	-2702	3463
D:	468.73	2582	3790	14280	-3761	1366	1801	-4632	-2702	3463
D:	469.75	2582	3790	14280	-3761	1366	1801	-4632	-2702	3463
D:	470.65	2582	3790	14280	-3761	1366	1801	-4632	-2702	3463
D:	471.58	2582	3790	14280	-3761	1797	2059	-4632	-2702	3463
D:	472.54	2261	3202	15126	-4167	1797	2059	-4632	-2702	3463
D:	473.41	2261	3202	15126	-4167	1797	2059	-4632	-2702	3463
D:	474.32	2261	3202	15126	-4167	1797	2059	-4632	-2702	3463
D:	475.20	2261	3202	15126	-4167	1797	2059	-4632	-2702	3463
D:	476.08	2261	3202	15126	-4609	2780	1902	-4632	-2702	3463
D:	476.95	1584	2465	14834	-4609	2780	1902	-4632	-2702	3463
D:	477.80	1584	2465	14834	-4609	2780	1902	-4614	-2602	3399
D:	478.67	1584	2465	14834	-4609	2780	1902	-4614	-2602	3399
D:	479.51	1584	2465	14834	-4609	2416	1781	-4614	-2602	3399
D:	480.60	1556	2499	15216	-4267	2416	1781	-4614	-2602	3399
D:	481.73	1556	2499	15216	-4267	2416	1781	-4614	-2602	3399
D:	482.60	1556	2499	15216	-4267	2416	1781	-4614	-2602	3399
D:	483.49	1556	2499	15216	-4267	2416	1781	-4614	-2602	3399
D:	484.33	1556	2499	15216	-3858	2260	1599	-4614	-2602	3399
D:	485.17	1011	2217	14866	-3858	2260	1599	-4614	-2602	3399
D:	486.05	1011	2217	14866	-3858	2260	1599	-4614	-2602	3399
D:	487.02	1011	2217	14866	-3858	2260	1599	-4614	-2602	3399
D:	487.92	1011	2217	14866	-3813	1649	1570	-4614	-2602	3399
D:	489.00	627	2200	15522	-3813	1649	1570	-4614	-2602	3399
D:	489.93	627	2200	15522	-3813	1649	1570	-4614	-2602	3399
D:	490.81	627	2200	15522	-3813	1649	1570	-4614	-2602	3399
D:	491.69	627	2200	15522	-3813	723	1608	-4614	-2602	3399
D:	492.64	349	2041	14952	-3228	723	1608	-4614	-2602	3399
D:	493.51	349	2041	14952	-3228	723	1608	-4614	-2602	3399
D:	494.51	349	2041	14952	-3228	723	1608	-4614	-2602	3399
D:	495.38	349	2041	14952	-3228	723	1608	-4614	-2602	3399
D:	496.25	349	2041	14952	-2742	-249	1735	-4614	-2602	3399
D:	497.10	544	2041	15337	-2742	-249	1735	-4614	-2602	3399
D:	497.95	544	2041	15337	-2742	-249	1735	-4608	-2576	3621
D:	498.84	544	2041	15337	-2742	-249	1735	-4608	-2576	3621
D:	499.71	544	2041	15337	-2742	-1079	1714	-4608	-2576	3621
D:	500.64	1214	2398	15489	-2577	-1079	1714	-4608	-2576	3621
D:	501.49	1214	2398	15489	-2577	-1079	1714	-4608	-2576	3621
D:	502.35	1214	2398	15489	-2577	-1079	1714	-4608	-2576	3621
D:	503.23	1214	2398	15489	-2577	-1079	1714	-4608	-2576	3621
D:	504.10	1214	2398	15489	-2428	-1211	1337	-4608	-2576	3621
D:	504.95	1688	2786	15053	-2428	-1211	1337	-4608	-2576	3621
D:	505.79	1688	2786	15053	-2428	-1211	1337	-4608	-2576	3621
D:	506.65	1688	2786	15053	-2428	-1211	1337	-4608	-2576	3621
D:	507.58	1688	2786	15053	-2428	-786	715	-4608	-2576	3621
D:	508.54	1981	2948	15692	-2876	-786	715	-4608	-2576	3621
D:	509.58	1981	2948	15692	-2876	-786	715	-4608	-2576	3621
D:	510.73	1981	2948	15692	-2876	-786	715	-4608	-2576	3621
D:	511.63	1981	2948	15692	-2876	-145	-60	-4608	-2576	3621
D:	512.50	2480	3241	15213	-3290	-145	-60	-4608	-2576	3621
D:	513.56	2480	3241	15213	-3290	-145	-60	-4608	-2576	3621
D:	514.65	2480	3241	15213	-3290	-145	-60	-4608	-2576	3621
D:	515.55	2480	3241	15213	-3290	432	-357	-4608	-2576	3621
D:	516.50	2331	3278	15432	-3670	432	-357	-4608	-2576	3621
D:	517.35	2331	3278	15432	-3670	432	-357	-4608	-2576	3621
D:	518.31	2331	3278	15432	-3670	432	-357	-4603	-2510	3897
D:	519.18	2331	3278	15432	-3670	432	-357	-4603	-2510	3897
D:	520.03	2331	3278	15432	-4193	928	-240	-4603	-2510	3897
D:	520.88	1910	2908	15922	-4193	928	-240	-4603	-2510	3897
D:	521.72	1910	2908	15922	-4193	928	-240	-4603	-2510	3897
D:	522.60	1910	2908	15922	-4193	928	-240	-4603	-2510	3897
D:	523.49	1910	2908	15922	-4193	928	-240	-4603	-2510	3897
D:	524.38	1910	2908	15922	-4358	1592	-639	-4603	-2510	3897
D:	525.35	1890	2629	15019	-4358	1592	-639	-4603	-2510	3897
D:	526.21	1890	2629	15019	-4358	1592	-639	-4603	-2510	3897
D:	527.09	1890	2629	15019	-4358	1592	-639	-4603	-2510	3897
D:	528.03	1890	2629	15019	-4426	1869	-1486	-4603	-2510	3897
D:	529.02	1635	3347	15125	-4426	1869	-1486	-4603	-2510	3897
D:	529.92	1635	3347	15125	-4426	1869	-1486	-4603	-2510	3897
D:	530.80	1635	3347	15125	-4426	1869	-1486	-4603	-2510	3897
D:	531.70	1635	3347	15125	-4426	1762	-1691	-4603	-2510	3897
D:	532.76	2827	3661	15713	-4687	1762	-1691	-4603	-2510	3897
D:	533.73	2827	3661	15713	-4687	1762	-1691	-4603	-2510	3897
D:	534.61	2827	3661	15713	-4687	1762	-1691	-4603	-2510	3897
D:	535.49	2827	3661	15713	-4687	1762	-1691	-4603	-2510	3897
D:	536.34	2827	3661	15713	-4355	1638	-955	-4603	-2510	3897
D:	537.18	2912	4188	16255	-4355	1638	-955	-4603	-2510	3897
D:	538.16	2912	4188	16255	-4355	1638	-955	-4581	-2532	3719
D:	539.11	2912	4188	16255	-4355	1638	-955	-4581	-2532	3719
D:	540.10	2912	4188	16255	-4355	1652	-689	-4581	-2532	3719
D:	541.17	2410	4152	15931	-4355	1652	-689	-4581	-2532	3719
D:	542.11	2410	4152	15931	-4355	1652	-689	-4581	-2532	3719
D:	543.07	2410	4152	15931	-4355	1652	-689	-4581	-2532	3719
D:	543.95	2410	4152	15931	-5159	1627	-577	-4581	-2532	3719
D:	544.80	2564	3432	15905	-5159	1627	-577	-4581	-2532	3719
D:	545.73	2564	3432	15905	-5159	1627	-577	-4581	-2532	3719
D:	546.87	2564	3432	15905	-5159	1627	-577	-4581	-2532	3719
D:	547.73	2564	3432	15905	-5159	1715	-349	-4581	-2532	3719
D:	548.83	2752	3481	15887	-5302	1715	-349	-4581	-2532	3719
D:	550.02	2752	3481	15887	-5302	1715	-349	-4581	-2532	3719
D:	550.96	2752	3481	15887	-5302	1715	-349	-4581	-2532	3719
D:	551.84	2752	3481	15887	-5302	1901	-283	-4581	-2532	3719
D:	552.70	2726	3557	14950	-5001	1901	-283	-4581	-2532	3719
D:	553.72	2726	3557	14950	-5001	1901	-283	-4581	-2532	3719
D:	554.72	2726	3557	14950	-5001	1901	-283	-4581	-2532	3719
D:	555.62	2726	3557	14950	-5001	2115	-139	-4581	-2532	3719
D:	556.49	2726	3557	15869	-5562	2115	-139	-4581	-2532	3719
D:	557.35	2498	3280	15869	-5562	2115	-139	-4581	-2532	3719
D:	558.18	2498	3280	15869	-5562	2115	-139	-4581	-2532	3966
D:	559.07	2498	3280	15869	-5562	2115	-139	-4581	-2532	3966
D:	559.95	2498	3280	15869	-5787	2157	222	-4581	-2532	3966
D:	560.82	2314	2944	16136	-5787	2157	222	-4581	-2532	3966
D:	561.68	2314	2944	16136	-5787	2157	222	-4527	-2446	3966
D:	562.60	2314	2944	16136	-5787	2157	222	-4527	-2446	3966
D:	563.50	2314	2944	16136	-5787	2157	222	-4527	-2446	3966
D:	564.35	2314	2944	16136	-5411	2182	148	-4527	-2446	3966
D:	565.20	694	3970	14883	-5411	2182	148	-4527	-2446	3966
D:	566.08	694	3970	14883	-5411	2182	148	-4527	-2446	3966
D:	567.04	694	3970	14883	-5411	2182	148	-4527	-2446	3966
D:	567.94	694	3970	14883	-5547	2687	-940	-4527	-2446	3966
D:	568.81	2960	2503	15501	-5547	2687	-940	-4527	-2446	3966
D:	569.81	2960	2503	15501	-5547	2687	-940	-4527	-2446	3966
D:	570.79	2960	2503	15501	-5547	2687	-940	-4527	-2446	3966
D:	571.62	2960	2503	15501	-5547	3437	-1418	-4527	-2446	3966
D:	572.49	2960	2503	16375	-6585	3437	-1418	-4527	-2446	3966
D:	573.36	3002	2533	16375	-6585	3437	-1418	-4527	-2446	3966
D:	574.22	3002	2533	16375	-6585	3437	-1418	-4527	-2446	3966
D:	575.10	3002	2533	16375	-6585	3437	-1418	-4527	-2446	3966
D:	575.96	3002	2533	16375	-5431	4401	-1469	-4527	-2446	3966
D:	576.83	815	3348	15234	-5431	4401	-1469	-4527	-2446	3966
D:	577.69	815	3348	15234	-5431	4401	-1469	-4527	-2446	3966
D:	578.64	815	3348	15234	-5431	4401	-1469	-4527	-2446	3966
D:	579.66	815	3348	15234	-5431	3530	-1273	-4527	-2446	3966
D:	580.69	541	2170	16196	-6786	3530	-1273	-4527	-2446	3966
D:	581.69	541	2170	16196	-6786	3530	-1273	-4491	-2411	3853
D:	582.64	541	2170	16196	-6786	3530	-1273	-4491	-2411	3853
D:	583.55	541	2170	16196	-6786	2290	-1051	-4491	-2411	3853
D:	584.53	934	1752	17222	-6427	2290	-1051	-4491	-2411	3853
D:	585.61	934	1752	17222	-6427	2290	-1051	-4491	-2411	3853
D:	586.71	934	1752	17222	-6427	2290	-1051	-4491	-2411	3853
D:	587.74	934	1752	17222	-6427	1484	-1170	-4491	-2411	3853
D:	588.70	840	2901	15515	-5323	1484	-1170	-4491	-2411	3853
D:	589.85	840	2901	15515	-5323	1484	-1170	-4491	-2411	3853
D:	590.83	840	2901	15515	-5323	1484	-1170	-4491	-2411	3853
D:	591.70	840	2901	15515	-5323	1322	-1448	-4491	-2411	3853
D:	592.64	1760	2524	15972	-6006	1322	-1448	-4491	-2411	3853
D:	593.55	1760	2524	15972	-6006	1322	-1448	-4491	-2411	3853
D:	594.41	1760	2524	15972	-6006	1322	-1448	-4491	-2411	3853
D:	595.28	1760	2524	15972	-6006	1322	-1448	-4491	-2411	3853
D:	596.15	1760	2524	15972	-6722	1537	-1428	-4491	-2411	3853
D:	597.02	1818	2116	16953	-6722	1537	-1428	-4491	-2411	3853
D:	597.91	1818	2116	16953	-6722	1537	-1428	-4491	-2411	3853
D:	598.77	1818	2116	16953	-6722	1537	-1428	-4491	-2411	3853
D:	599.63	1818	2116	16953	-6722	2249	-1929	-4491	-2411	3853
D:	600.49	1818	2116	16031	-6222	2249	-1929	-4491	-2411	3853
D:	601.42	779	2595	16031	-6222	2249	-1929	-4440	-2337	3720
D:	602.36	779	2595	16031	-6222	2249	-1929	-4440	-2337	3720
D:	603.23	779	2595	16031	-6222	2249	-1929	-4440	-2337	3720
D:	604.11	779	2595	16031	-6656	2740	-2818	-4440	-2337	3720
D:	604.95	420	2339	15471	-6656	2740	-2818	-4440	-2337	3720
D:	605.80	420	2339	15471	-6656	2740	-2818	-4440	-2337	3720
D:	606.76	420	2339	15471	-6656	2740	-2818	-4440	-2337	3720
D:	607.79	420	2339	15471	-6656	2610	-2788	-4440	-2337	3720
D:	608.87	506	1874	15904	-7652	2610	-2788	-4440	-2337	3720
D:	609.82	506	1874	15904	-7652	2610	-2788	-4440	-2337	3720
D:	610.72	506	1874	15904	-7652	2610	-2788	-4440	-2337	3720
D:	611.65	506	1874	15904	-7652	2428	-2535	-4440	-2337	3720
D:	612.51	506	1874	15506	-7247	2428	-2535	-4440	-2337	3720
D:	613.45	281	2032	15506	-7247	2428	-2535	-4440	-2337	3720
D:	614.40	281	2032	15506	-7247	2428	-2535	-4440	-2337	3720
D:	615.28	281	2032	15506	-7247	2428	-2535	-4440	-2337	3720
D:	616.15	281	2032	15506	-7246	2445	-2521	-4440	-2337	3720
D:	617.08	467	1803	15390	-7246	2445	-2521	-4440	-2337	3720
D:	617.93	467	1803	15390	-7246	2445	-2521	-4440	-2337	3720
D:	618.79	467	1803	15390	-7246	2445	-2521	-4440	-2337	3720
D:	619.72	467	1803	15390	-7246	2978	-2787	-4440	-2337	3720
D:	620.72	471	920	15024	-8115	2978	-2787	-4440	-2337	3720
D:	621.68	471	920	15024	-8115	2978	-2787	-4395	-2332	4081
D:	622.76	471	920	15024	-8115	2978	-2787	-4395	-2332	4081
D:	623.71	471	920	15024	-8115	3463	-3070	-4395	-2332	4081
D:	624.63	88	1006	14872	-7469	3463	-3070	-4395	-2332	4081
D:	625.51	88	1006	14872	-7469	3463	-3070	-4395	-2332	4081
D:	626.35	88	1006	14872	-7469	3463	-3070	-4395	-2332	4081
D:	627.24	88	1006	14872	-7469	3463	-3070	-4395	-2332	4081
D:	628.26	88	1006	14872	-7285	3673	-3504	-4395	-2332	4081
D:	629.18	-252	730	15041	-7285	3673	-3504	-4395	-2332	4081
D:	630.02	-252	730	15041	-7285	3673	-3504	-4395	-2332	4081
D:	630.89	-252	730	15041	-7285	3673	-3504	-4395	-2332	4081
D:	631.79	-252	730	15041	-7285	3422	-3637	-4395	-2332	4081
D:	632.68	303	658	15304	-7147	3422	-3637	-4395	-2332	4081
D:	633.55	303	658	15304	-7147	3422	-3637	-4395	-2332	4081
D:	634.42	303	658	15304	-7147	3422	-3637	-4395	-2332	4081
D:	635.32	303	658	15304	-7147	3422	-3637	-4395	-2332	4081
D:	636.15	303	658	15304	-6566	2934	-3716	-4395	-2332	4081
D:	637.07	124	743	15046	-6566	2934	-3716	-4395	-2332	4081
D:	637.93	124	743	15046	-6566	2934	-3716	-4395	-2332	4081
D:	638.92	124	743	15046	-6566	2934	-3716	-4395	-2332	4081
D:	639.94	124	743	15046	-6566	2419	-3728	-4395	-2332	4081
D:	640.91	619	934	15466	-6434	2419	-3728	-4395	-2332	4081
D:	641.86	619	934	15466	-6434	2419	-3728	-4302	-2276	4408
D:	642.73	619	934	15466	-6434	2419	-3728	-4302	-2276	4408
D:	643.67	619	934	15466	-6434	1904	-3790	-4302	-2276	4408
D:	644.60	926	1167	15734	-6093	1904	-3790	-4302	-2276	4408
D:	645.46	926	1167	15734	-6093	1904	-3790	-4302	-2276	4408
D:	646.60	926	1167	15734	-6093	1904	-3790	-4302	-2276	4408
D:	647.56	926	1167	15734	-6093	1559	-3876	-4302	-2276	4408
D:	648.57	1040	1371	15680	-5916	1559	-3876	-4302	-2276	4408
D:	649.50	1040	1371	15680	-5916	1559	-3876	-4302	-2276	4408
D:	650.34	1040	1371	15680	-5916	1559	-3876	-4302	-2276	4408
D:	651.18	1040	1371	15680	-5916	1559	-3876	-4302	-2276	4408
D:	652.05	1040	1371	15680	-5667	1348	-3708	-4302	-2276	4408
D:	652.95	1265	1628	16326	-5667	1348	-3708	-4302	-2276	4408
D:	653.82	1265	1628	16326	-5667	1348	-3708	-4302	-2276	4408
D:	654.69	1265	1628	16326	-5667	1348	-3708	-4302	-2276	4408
D:	655.64	1265	1628	16326	-5667	1013	-3532	-4302	-2276	4408
D:	656.50	1265	1628	16032	-5621	1013	-3532	-4302	-2276	4408
D:	657.37	1550	1701	16032	-5621	1013	-3532	-4302	-2276	4408
D:	658.36	1550	1701	16032	-5621	1013	-3532	-4302	-2276	4408
D:	659.43	1550	1701	16032	-5621	1013	-3532	-4302	-2276	4408
D:	660.35	1550	1701	16032	-5546	864	-3234	-4302	-2276	4408
D:	661.20	2023	1740	16000	-5546	864	-3234	-4302	-2276	4408
D:	662.09	2023	1740	16000	-5546	864	-3234	-4255	-2300	4235
D:	663.25	2023	1740	16000	-5546	864	-3234	-4255	-2300	4235
D:	664.23	2023	1740	16000	-5440	932	-2636	-4255	-2300	4235
D:	665.19	1962	1929	15940	-5440	932	-2636	-4255	-2300	4235
D:	666.31	1962	1929	15940	-5440	932	-2636	-4255	-2300	4235
D:	667.28	1962	1929	15940	-5440	932	-2636	-4255	-2300	4235
D:	668.40	2194	979	16420	-5317	1205	-2223	-4255	-2300	4235
D:	669.50	2194	979	16420	-5317	1205	-2223	-4255	-2300	4235
D:	670.32	2194	979	16420	-5317	1205	-2223	-4255	-2300	4235
D:	671.26	2194	979	16420	-5317	1205	-2223	-4255	-2300	4235
D:	672.12	2194	979	16420	-6055	2056	-867	-4255	-2300	4235
D:	673.09	1849	2371	15965	-6055	2056	-867	-4255	-2300	4235
D:	673.95	1849	2371	15965	-6055	2056	-867	-4255	-2300	4235
D:	674.80	1849	2371	15965	-6055	2056	-867	-4255	-2300	4235
D:	675.67	1849	2371	15965	-6055	2301	-779	-4255	-2300	4235
D:	676.63	1588	1486	16097	-4453	2301	-779	-4255	-2300	4235
D:	677.70	1588	1486	16097	-4453	2301	-779	-4255	-2300	4235
D:	678.65	1588	1486	16097	-4453	2301	-779	-4255	-2300	4235
D:	679.70	1588	1486	16097	-4453	2248	-1208	-4255	-2300	4235
D:	680.60	2296	2096	15868	-4462	2248	-1208	-4255	-2300	4235
D:	681.49	2296	2096	15868	-4462	2248	-1208	-4204	-2221	4356
D:	682.36	2296	2096	15868	-4462	2248	-1208	-4204	-2221	4356
D:	683.20	2296	2096	15868	-4462	2248	-1208	-4204	-2221	4356
D:	684.07	2296	2096	15868	-4527	2497	-688	-4204	-2221	4356
D:	684.93	2536	1774	16031	-4527	2497	-688	-4204	-2221	4356
D:	685.92	2536	1774	16031	-4527	2497	-688	-4204	-2221	4356
D:	686.91	2536	1774	16031	-4527	2497	-688	-4204	-2221	4356
D:	687.80	2536	1774	16031	-4527	2420	-4	-4204	-2221	4356
D:	688.91	1728	1121	15816	-4560	2420	-4	-4204	-2221	4356
D:	689.93	1728	1121	15816	-4560	2420	-4	-4204	-2221	4356
D:	690.86	1728	1121	15816	-4560	2420	-4	-4204	-2221	4356
D:	691.75	1728	1121	15816	-4560	2716	337	-4204	-2221	4356
D:	692.62	1538	779	15242	-4388	2716	337	-4204	-2221	4356
D:	693.49	1538	779	15242	-4388	2716	337	-4204	-2221	4356
D:	694.35	1538	779	15242	-4388	2716	337	-4204	-2221	4356
D:	695.22	1538	779	15242	-4388	2716	337	-4204	-2221	4356
D:	696.10	1538	779	15242	-4064	2741	441	-4204	-2221	4356
D:	696.95	1058	759	15416	-4064	2741	441	-4204	-2221	4356
D:	697.83	1058	759	15416	-4064	2741	441	-4204	-2221	4356
D:	698.69	1058	759	15416	-4064	2741	441	-4204	-2221	4356
D:	699.64	1058	759	15416	-4064	2619	681	-4204	-2221	4356
D:	700.49	1058	759	14847	-3976	2619	681	-4204	-2221	4356
D:	701.36	1115	448	14847	-3976	2619	681	-4204	-2221	4356
D:	702.22	1115	448	14847	-3976	2619	681	-4165	-2188	4422
D:	703.07	1115	448	14847	-3976	2619	681	-4165	-2188	4422
D:	703.95	1115	448	14847	-3712	2259	942	-4165	-2188	4422
D:	704.82	661	-546	14993	-3712	2259	942	-4165	-2188	4422
D:	705.67	661	-546	14993	-3712	2259	942	-4165	-2188	4422
D:	706.60	661	-546	14993	-3712	2259	942	-4165	-2188	4422
D:	707.67	661	-546	14993	-3712	2208	894	-4165	-2188	4422
D:	708.67	266	-919	15128	-2921	2208	894	-4165	-2188	4422
D:	709.67	266	-919	15128	-2921	2208	894	-4165	-2188	4422
D:	710.68	266	-919	15128	-2921	2208	894	-4165	-2188	4422
D:	711.68	266	-919	15128	-2921	1964	111	-4165	-2188	4422
D:	712.66	-172	-1025	15386	-1922	1964	111	-4165	-2188	4422
D:	713.82	-172	-1025	15386	-1922	1964	111	-4165	-2188	4422
D:	714.88	-172	-1025	15386	-1922	1964	111	-4165	-2188	4422
D:	715.75	-172	-1025	15386	-1922	1523	-498	-4165	-2188	4422
D:	716.59	-90	-351	16090	-1394	1523	-498	-4165	-2188	4422
D:	717.49	-90	-351	16090	-1394	1523	-498	-4165	-2188	4422
D:	718.53	-90	-351	16090	-1394	1523	-498	-4165	-2188	4422
D:	719.62	-90	-351	16090	-1394	776	-626	-4165	-2188	4422
D:	720.65	742	-17	16198	-796	776	-626	-4165	-2188	4422
D:	721.55	742	-17	16198	-796	776	-626	-4165	-2188	4538
D:	722.43	742	-17	16198	-796	776	-626	-4165	-2188	4538
D:	723.29	742	-17	16198	-796	776	-626	-4165	-2188	4538
D:	724.15	742	-17	16198	-613	172	-453	-4165	-2188	4538
D:	725.02	203	224	16195	-613	172	-453	-4165	-2188	4538
D:	725.89	203	224	16195	-613	172	-453	-4119	-2168	4538
D:	726.96	203	224	16195	-613	172	-453	-4119	-2168	4538
D:	728.17	203	224	16195	-573	4	-752	-4119	-2168	4538
D:	729.34	710	-177	15928	-573	4	-752	-4119	-2168	4538
D:	730.53	710	-177	15928	-573	4	-752	-4119	-2168	4538
D:	731.43	710	-177	15928	-573	4	-752	-4119	-2168	4538
D:	732.30	710	-177	15928	71	-305	-1297	-4119	-2168	4538
D:	733.15	966	256	16120	71	-305	-1297	-4119	-2168	4538
D:	734.05	966	256	16120	71	-305	-1297	-4119	-2168	4538
D:	734.95	966	256	16120	71	-305	-1297	-4119	-2168	4538
D:	735.82	966	256	16120	71	-179	-1910	-4119	-2168	4538
D:	736.64	1310	597	16531	622	-179	-1910	-4119	-2168	4538
D:	737.49	1310	597	16531	622	-179	-1910	-4119	-2168	4538
D:	738.44	1310	597	16531	622	-179	-1910	-4119	-2168	4538
D:	739.52	1310	597	16531	622	-179	-1910	-4119	-2168	4538
D:	740.38	1310	597	16531	1020	-450	-2395	-4119	-2168	4538
D:	741.25	1462	894	16592	1020	-450	-2395	-4119	-2168	4538
D:	742.13	1462	894	16592	1020	-450	-2395	-4119	-2168	4538
D:	743.09	1462	894	16592	1020	-450	-2395	-4119	-2168	4538
D:	743.96	1462	894	16592	276	-625	-2714	-4119	-2168	4538
D:	744.82	1118	739	16648	276	-625	-2714	-4119	-2168	4538
D:	745.76	1118	739	16648	276	-625	-2714	-4112	-2223	4489
D:	746.87	1118	739	16648	276	-625	-2714	-4112	-2223	4489
D:	747.78	1118	739	16648	276	-1205	-2957	-4112	-2223	4489
D:	748.76	1342	434	15709	-247	-1205	-2957	-4112	-2223	4489
D:	749.94	1342	434	15709	-247	-1205	-2957	-4112	-2223	4489
D:	751.20	1342	434	15709	-247	-1205	-2957	-4112	-2223	4489
D:	752.52	1842	334	15436	-125	-1129	-3081	-4112	-2223	4489
D:	753.49	1842	334	15436	-125	-1129	-3081	-4112	-2223	4489
D:	754.36	1842	334	15436	-125	-1129	-3081	-4112	-2223	4489
D:	755.22	1842	334	15436	-125	-1129	-3081	-4112	-2223	4489
D:	756.10	1842	334	15436	110	-385	-3236	-4112	-2223	4489
D:	756.94	1303	435	15748	110	-385	-3236	-4112	-2223	4489
D:	757.81	1303	435	15748	110	-385	-3236	-4112	-2223	4489
D:	758.85	1303	435	15748	110	-385	-3236	-4112	-2223	4489
D:	759.85	1303	435	15748	-146	-38	-4060	-4112	-2223	4489
D:	760.73	570	-353	16580	-251	-38	-4060	-4112	-2223	4489
D:	761.62	570	-353	16580	-251	-38	-4060	-4112	-2223	4489
D:	762.49	570	-353	16580	-251	-38	-4060	-4112	-2223	4489
D:	763.34	570	-353	16580	-251	-38	-4060	-4112	-2223	4489
D:	764.20	570	-353	16580	-144	6	-5166	-4112	-2223	4489
D:	765.05	826	1180	17129	-144	6	-5166	-4112	-2223	4489
D:	766.01	826	1180	17129	-144	6	-5166	-4094	-2265	4584
D:	766.85	826	1180	17129	-144	6	-5166	-4094	-2265	4584
D:	767.73	826	1180	17129	-144	-368	-5721	-4094	-2265	4584
D:	768.79	1367	1725	16964	-315	-368	-5721	-4094	-2265	4584
D:	769.78	1367	1725	16964	-315	-368	-5721	-4094	-2265	4584
D:	770.70	1367	1725	16964	-315	-368	-5721	-4094	-2265	4584
D:	771.81	1367	1725	16964	-827	-728	-5983	-4094	-2265	4584
D:	772.71	1806	1898	17394	-896	-728	-5983	-4094	-2265	4584
D:	773.60	1806	1898	17394	-896	-728	-5983	-4094	-2265	4584
D:	774.49	1806	1898	17394	-896	-728	-5983	-4094	-2265	4584
D:	775.36	1806	1898	17394	-896	-728	-5983	-4094	-2265	4584
D:	776.22	1806	1898	17394	-1445	-1060	-5798	-4094	-2265	4584
D:	777.10	1957	1933	15576	-1445	-1060	-5798	-4094	-2265	4584
D:	777.97	1957	1933	15576	-1445	-1060	-5798	-4094	-2265	4584
D:	778.89	1957	1933	15576	-1445	-1060	-5798	-4094	-2265	4584
D:	779.78	1957	1933	15576	-1445	-574	-5330	-4094	-2265	4584
D:	780.65	2957	2288	15948	-1235	-574	-5330	-4094	-2265	4584
D:	781.49	2957	2288	15948	-1235	-574	-5330	-4094	-2265	4584
D:	782.37	2957	2288	15948	-1235	-574	-5330	-4094	-2265	4584
D:	783.22	2957	2288	15948	-1235	-574	-5330	-4094	-2265	4584
D:	784.10	2957	2288	15948	-1374	787	-4847	-4094	-2265	4584
D:	785.04	3203	3166	18331	-1374	787	-4847	-4094	-2265	4584
D:	785.93	3203	3166	18331	-1374	787	-4847	-4055	-2327	4428
D:	786.78	3203	3166	18331	-1374	787	-4847	-4055	-2327	4428
D:	787.88	3203	3166	18331	-2654	1693	-3879	-4055	-2327	4428
D:	788.96	1771	2500	17659	-2583	1693	-3879	-4055	-2327	4428
D:	789.91	1771	2500	17659	-2583	1693	-3879	-4055	-2327	4428
D:	790.74	1771	2500	17659	-2583	1693	-3879	-4055	-2327	4428
D:	791.65	1771	2500	17659	-2583	1385	-3053	-4055	-2327	4428
D:	792.67	1211	1859	17740	-2456	1385	-3053	-4055	-2327	4428
D:	793.63	1211	1859	17740	-2456	1385	-3053	-4055	-2327	4428
D:	794.55	1211	1859	17740	-2456	1385	-3053	-4055	-2327	4428
D:	795.41	1211	1859	17740	-2456	1385	-3053	-4055	-2327	4428
D:	796.25	1211	1859	17740	-2545	624	-3036	-4055	-2327	4428
D:	797.12	139	1291	16942	-2545	624	-3036	-4055	-2327	4428
D:	798.09	139	1291	16942	-2545	624	-3036	-4055	-2327	4428
D:	798.96	139	1291	16942	-2545	624	-3036	-4055	-2327	4428
D:	799.82	139	1291	16942	-2545	-725	-3114	-4055	-2327	4428
D:	800.65	744	518	16188	-1944	-725	-3114	-4055	-2327	4428
D:	801.49	744	518	16188	-1944	-725	-3114	-4055	-2327	4428
D:	802.35	744	518	16188	-1944	-725	-3114	-4055	-2327	4428
D:	803.22	744	518	16188	-1944	-725	-3114	-4055	-2327	4428
D:	804.10	744	518	16188	-1416	-960	-3439	-4055	-2327	4428
D:	804.94	2244	1094	15996	-1416	-960	-3439	-4055	-2327	4428
D:	805.81	2244	1094	15996	-1416	-960	-3439	-4006	-2345	4405
D:	806.90	2244	1094	15996	-1416	-960	-3439	-4006	-2345	4405
D:	808.09	2244	1094	15996	-1606	-390	-3267	-4006	-2345	4405
D:	809.04	1256	923	15387	-1606	-390	-3267	-4006	-2345	4405
D:	809.99	1256	923	15387	-1606	-390	-3267	-4006	-2345	4405
D:	810.85	1256	923	15387	-1606	-390	-3267	-4006	-2345	4405
D:	811.69	1256	923	15387	-1606	287	-2801	-4006	-2345	4405
D:	812.64	532	-397	14872	-2067	287	-2801	-4006	-2345	4405
D:	813.64	532	-397	14872	-2067	287	-2801	-4006	-2345	4405
D:	814.79	532	-397	14872	-2067	287	-2801	-4006	-2345	4405
D:	815.90	532	-397	14872	-1555	402	-3012	-4006	-2345	4405
D:	816.80	-200	-833	14615	-1778	402	-3012	-4006	-2345	4405
D:	817.67	-200	-833	14615	-1778	402	-3012	-4006	-2345	4405
D:	818.55	-200	-833	14615	-1778	402	-3012	-4006	-2345	4405
D:	819.39	-200	-833	14615	-1778	402	-3012	-4006	-2345	4405
D:	820.25	-200	-833	14615	-1418	-198	-3218	-4006	-2345	4405
D:	821.12	-613	-619	14142	-1418	-198	-3218	-4006	-2345	4405
D:	822.07	-613	-619	14142	-1418	-198	-3218	-4006	-2345	4405
D:	822.93	-613	-619	14142	-1418	-198	-3218	-4006	-2345	4405
D:	823.79	-613	-619	14142	-1418	-1010	-3232	-4006	-2345	4405
D:	824.65	-645	-1986	14905	-761	-1010	-3232	-4006	-2345	4405
D:	825.51	-645	-1986	14905	-761	-1010	-3232	-3975	-2405	4400
D:	826.34	-645	-1986	14905	-761	-1010	-3232	-3975	-2405	4400
D:	827.17	-645	-1986	14905	-761	-1010	-3232	-3975	-2405	4400
D:	828.24	-645	-1986	14905	-710	-1113	-2997	-3975	-2405	4400
D:	829.13	-1375	-1660	15926	-710	-1113	-2997	-3975	-2405	4400
D:	830.04	-1375	-1660	15926	-710	-1113	-2997	-3975	-2405	4400
D:	830.97	-1375	-1660	15926	-710	-1113	-2997	-3975	-2405	4400
D:	831.82	-1375	-1660	15926	-710	-828	-2743	-3975	-2405	4400
D:	832.67	-595	-1817	15406	-1154	-828	-2743	-3975	-2405	4400
D:	833.55	-595	-1817	15406	-1154	-828	-2743	-3975	-2405	4400
D:	834.53	-595	-1817	15406	-1154	-828	-2743	-3975	-2405	4400
D:	835.67	-595	-1817	15406	-1154	-801	-2828	-3975	-2405	4400
D:	836.65	-1052	-2005	15563	-1080	-801	-2828	-3975	-2405	4400
D:	837.55	-1052	-2005	15563	-1080	-801	-2828	-3975	-2405	4400
D:	838.41	-1052	-2005	15563	-1080	-801	-2828	-3975	-2405	4400
D:	839.27	-1052	-2005	15563	-1080	-801	-2828	-3975	-2405	4400
D:	840.15	-1052	-2005	15563	-1712	90	-3214	-3975	-2405	4400
D:	841.05	-75	-2647	17325	-1712	90	-3214	-3975	-2405	4400
D:	841.99	-75	-2647	17325	-1712	90	-3214	-3975	-2405	4400
D:	842.86	-75	-2647	17325	-1712	90	-3214	-3975	-2405	4400
D:	843.70	-75	-2647	17325	-1712	991	-3803	-3975	-2405	4400
D:	844.59	-1866	-1262	16159	-2388	991	-3803	-3975	-2405	4400
D:	845.60	-1866	-1262	16159	-2388	991	-3803	-3945	-2420	4590
D:	846.74	-1866	-1262	16159	-2388	991	-3803	-3945	-2420	4590
D:	847.73	-1866	-1262	16159	-2388	1614	-4069	-3945	-2420	4590
D:	848.87	-949	-1012	17002	-2838	1614	-4069	-3945	-2420	4590
D:	849.89	-949	-1012	17002	-2838	1614	-4069	-3945	-2420	4590
D:	850.81	-949	-1012	17002	-2838	1614	-4069	-3945	-2420	4590
D:	851.64	-949	-1012	17002	-2838	1629	-3770	-3945	-2420	4590
D:	852.55	-966	-627	16304	-2917	1629	-3770	-3945	-2420	4590
D:	853.41	-966	-627	16304	-2917	1629	-3770	-3945	-2420	4590
D:	854.31	-966	-627	16304	-2917	1629	-3770	-3945	-2420	4590
D:	855.17	-966	-627	16304	-2917	1629	-3770	-3945	-2420	4590
D:	856.29	-966	-627	16304	-2223	1491	-4283	-3945	-2420	4590
D:	857.38	-720	216	15828	-2223	1491	-4283	-3945	-2420	4590
D:	858.25	-720	216	15828	-2223	1491	-4283	-3945	-2420	4590
D:	859.12	-720	216	15828	-2223	1491	-4283	-3945	-2420	4590
D:	860.09	-720	216	15828	-1201	1502	-4454	-3945	-2420	4590
D:	860.92	806	1682	16174	-1201	1502	-4454	-3945	-2420	4590
D:	861.78	806	1682	16174	-1201	1502	-4454	-3945	-2420	4590
D:	862.77	806	1682	16174	-1201	1502	-4454	-3945	-2420	4590
D:	863.81	806	1682	16174	-1201	674	-4484	-3945	-2420	4590
D:	864.65	258	1222	14531	-185	674	-4484	-3945	-2420	4590
D:	865.50	258	1222	14531	-185	674	-4484	-3893	-2473	4600
D:	866.42	258	1222	14531	-185	674	-4484	-3893	-2473	4600
D:	867.33	258	1222	14531	-185	674	-4484	-3893	-2473	4600
D:	868.44	258	1222	14531	632	530	-3829	-3893	-2473	4600
D:	869.35	-439	-806	15123	632	530	-3829	-3893	-2473	4600
D:	870.20	-439	-806	15123	632	530	-3829	-3893	-2473	4600
D:	871.08	-439	-806	15123	632	530	-3829	-3893	-2473	4600
D:	871.95	-439	-806	15123	1489	669	-3176	-3893	-2473	4600
D:	872.81	-1604	-1477	16188	1489	669	-3176	-3893	-2473	4600
D:	873.64	-1604	-1477	16188	1489	669	-3176	-3893	-2473	4600
D:	874.49	-1604	-1477	16188	1489	669	-3176	-3893	-2473	4600
D:	875.36	-1604	-1477	16188	1489	669	-3176	-3893	-2473	4600
D:	876.21	-1604	-1477	16188	3528	-558	-3922	-3893	-2473	4600
D:	877.09	-915	448	18628	3528	-558	-3922	-3893	-2473	4600
D:	877.98	-915	448	18628	3528	-558	-3922	-3893	-2473	4600
D:	878.84	-915	448	18628	3528	-558	-3922	-3893	-2473	4600
D:	879.81	-915	448	18628	3528	-1858	-5575	-3893	-2473	4600
D:	880.86	622	2930	19073	5064	-1858	-5575	-3893	-2473	4600
D:	881.77	622	2930	19073	5064	-1858	-5575	-3893	-2473	4600
D:	882.65	622	2930	19073	5064	-1858	-5575	-3893	-2473	4600
D:	883.55	622	2930	19073	5064	-1858	-5575	-3893	-2473	4600
D:	884.39	622	2930	18748	6840	-4047	-6124	-3893	-2473	4600
D:	885.45	2770	4853	18748	6840	-4047	-6124	-3893	-2473	4762
D:	886.51	2770	4853	18748	6840	-4047	-6124	-3893	-2473	4762
D:	887.56	2770	4853	18748	6840	-4857	-5259	-3893	-2473	4762
D:	888.54	3994	6415	18459	7612	-4857	-5259	-3893	-2473	4762
D:	889.58	3994	6415	18459	7612	-4857	-5259	-3854	-2623	4762
D:	890.51	3994	6415	18459	7612	-4857	-5259	-3854	-2623	4762
D:	891.36	3994	6415	18459	7612	-4857	-5259	-3854	-2623	4762
D:	892.23	3994	6415	18459	6275	-3756	-3953	-3854	-2623	4762
D:	893.07	5131	6001	18013	6275	-3756	-3953	-3854	-2623	4762
D:	893.96	5131	6001	18013	6275	-3756	-3953	-3854	-2623	4762
D:	894.80	5131	6001	18013	6275	-3756	-3953	-3854	-2623	4762
D:	895.79	5131	6001	18013	6275	-693	-3385	-3854	-2623	4762
D:	896.82	3469	4968	17593	1892	-693	-3385	-3854	-2623	4762
D:	897.68	3469	4968	17593	1892	-693	-3385	-3854	-2623	4762
D:	898.55	3469	4968	17593	1892	-693	-3385	-3854	-2623	4762
D:	899.40	3469	4968	17593	1892	-693	-3385	-3854	-2623	4762
D:	900.27	3469	4968	17593	-260	248	-2488	-3854	-2623	4762
D:	901.15	2459	3325	16491	-260	248	-2488	-3854	-2623	4762
D:	902.07	2459	3325	16491	-260	248	-2488	-3854	-2623	4762
D:	902.97	2459	3325	16491	-260	248	-2488	-3854	-2623	4762
D:	903.80	2459	3325	16491	-260	-283	-1951	-3854	-2623	4762
D:	904.72	2410	2474	13337	-608	-283	-1951	-3854	-2623	4762
D:	905.78	2410	2474	13337	-608	-283	-1951	-3854	-2623	4762
D:	906.65	2410	2474	13337	-608	-283	-1951	-3854	-2623	4762
D:	907.69	2410	2474	13337	-608	1	-2056	-3854	-2623	4762
D:	908.88	2572	2281	12960	-17	1	-2056	-3854	-2623	4762
D:	909.78	2572	2281	12960	-17	1	-2056	-3834	-2725	4414
D:	910.65	2572	2281	12960	-17	1	-2056	-3834	-2725	4414
D:	911.55	2572	2281	12960	-17	1	-2056	-3834	-2725	4414
D:	912.40	2572	2281	12960	7	592	-2647	-3834	-2725	4414
D:	913.35	1820	2445	13222	7	592	-2647	-3834	-2725	4414
D:	914.42	1820	2445	13222	7	592	-2647	-3834	-2725	4414
D:	915.41	1820	2445	13222	7	592	-2647	-3834	-2725	4414
D:	916.27	1820	2445	13222	4	509	-2561	-3834	-2725	4414
D:	917.15	2341	2028	13175	4	509	-2561	-3834	-2725	4414
D:	918.08	2341	2028	13175	4	509	-2561	-3834	-2725	4414
D:	918.93	2341	2028	13175	4	509	-2561	-3834	-2725	4414
D:	919.78	2341	2028	13175	4	794	-2744	-3834	-2725	4414
D:	920.80	2340	2082	13530	241	794	-2744	-3834	-2725	4414
D:	921.70	2340	2082	13530	241	794	-2744	-3834	-2725	4414
D:	922.64	2340	2082	13530	241	794	-2744	-3834	-2725	4414
D:	923.50	2340	2082	13530	241	794	-2744	-3834	-2725	4414
D:	924.37	2340	2082	13530	-193	1410	-2896	-3834	-2725	4414
D:	925.20	2196	2602	14121	-193	1410	-2896	-3834	-2725	4414
D:	926.12	2196	2602	14121	-193	1410	-2896	-3834	-2725	4414
D:	927.04	2196	2602	14121	-193	1410	-2896	-3834	-2725	4414
D:	928.17	2196	2602	14121	-617	2184	-2821	-3834	-2725	4414
D:	929.06	2222	2320	14523	-617	2184	-2821	-3834	-2725	4414
D:	929.92	2222	2320	14523	-617	2184	-2821	-3773	-2784	4647
D:	930.77	2222	2320	14523	-617	2184	-2821	-3773	-2784	4647
D:	931.62	2222	2320	14523	-617	3025	-2041	-3773	-2784	4647
D:	932.49	2222	2320	13920	-1129	3025	-2041	-3773	-2784	4647
D:	933.35	1745	2286	13920	-1129	3025	-2041	-3773	-2784	4647
D:	934.22	1745	2286	13920	-1129	3025	-2041	-3773	-2784	4647
D:	935.07	1745	2286	13920	-1129	3025	-2041	-3773	-2784	4647
D:	935.95	1745	2286	13920	-1167	3252	-1065	-3773	-2784	4647
D:	936.82	1619	1813	13984	-1167	3252	-1065	-3773	-2784	4647
D:	937.70	1619	1813	13984	-1167	3252	-1065	-3773	-2784	4647
D:	938.64	1619	1813	13984	-1167	3252	-1065	-3773	-2784	4647
D:	939.50	1619	1813	13984	-1167	3252	-1065	-3773	-2784	4647
D:	940.35	1619	1813	13984	-1566	4179	-1321	-3773	-2784	4647
D:	941.26	1218	1080	13579	-1566	4179	-1321	-3773	-2784	4647
D:	942.18	1218	1080	13579	-1566	4179	-1321	-3773	-2784	4647
D:	943.07	1218	1080	13579	-1566	4179	-1321	-3773	-2784	4647
D:	943.94	1218	1080	13579	-1905	5098	-1772	-3773	-2784	4647
D:	944.82	957	941	13809	-1905	5098	-1772	-3773	-2784	4647
D:	945.73	957	941	13809	-1905	5098	-1772	-3773	-2784	4647
D:	946.73	957	941	13809	-1905	5098	-1772	-3773	-2784	4647
D:	947.65	957	941	13809	-1905	5568	-1455	-3773	-2784	4647
D:	948.65	570	694	10341	-1935	5568	-1455	-3773	-2784	4647
D:	949.64	570	694	10341	-1935	5568	-1455	-3691	-2794	4550
D:	950.50	570	694	10341	-1935	5568	-1455	-3691	-2794	4550
D:	951.38	570	694	10341	-1935	5568	-1455	-3691	-2794	4550
D:	952.22	570	694	10341	-552	6565	1146	-3691	-2794	4550
D:	953.05	4149	-662	14449	-552	6565	1146	-3691	-2794	4550
D:	953.95	4149	-662	14449	-552	6565	1146	-3691	-2794	4550
D:	954.79	4149	-662	14449	-552	6565	1146	-3691	-2794	4550
D:	955.67	4149	-662	14449	-552	6736	1109	-3691	-2794	4550
D:	956.55	-1036	-933	14876	-1033	6736	1109	-3691	-2794	4550
D:	957.42	-1036	-933	14876	-1033	6736	1109	-3691	-2794	4550
D:	958.31	-1036	-933	14876	-1033	6736	1109	-3691	-2794	4550
D:	959.17	-1036	-933	14876	-1033	6736	1109	-3691	-2794	4550
D:	960.02	-1036	-933	14876	-1221	5591	-915	-3691	-2794	4550
D:	960.94	-2	-317	13884	-1221	5591	-915	-3691	-2794	4550
D:	961.80	-2	-317	13884	-1221	5591	-915	-3691	-2794	4550
D:	962.67	-2	-317	13884	-1221	5591	-915	-3691	-2794	4550
D:	963.63	-2	-317	13884	-1221	4438	-1560	-3691	-2794	4550
D:	964.75	788	434	14035	-52	4438	-1560	-3691	-2794	4550
D:	965.80	788	434	14035	-52	4438	-1560	-3691	-2794	4550
D:	966.75	788	434	14035	-52	4438	-1560	-3691	-2794	4550
D:	967.68	788	434	14035	-52	4630	-1498	-3691	-2794	4550
D:	968.60	1210	739	15065	-27	4630	-1498	-3691	-2794	4550
D:	969.50	1210	739	15065	-27	4630	-1498	-3600	-2797	4433
D:	970.38	1210	739	15065	-27	4630	-1498	-3600	-2797	4433
D:	971.23	1210	739	15065	-27	4630	-1498	-3600	-2797	4433
D:	972.24	1210	739	15065	-668	5391	-1412	-3600	-2797	4433
D:	973.18	646	608	15934	-668	5391	-1412	-3600	-2797	4433
D:	974.05	646	608	15934	-668	5391	-1412	-3600	-2797	4433
D:	974.92	646	608	15934	-668	5391	-1412	-3600	-2797	4433
D:	975.77	646	608	15934	-668	5516	-1690	-3600	-2797	4433
D:	976.62	-46	315	17115	-1266	5516	-1690	-3600	-2797	4433
D:	977.49	-46	315	17115	-1266	5516	-1690	-3600	-2797	4433
D:	978.35	-46	315	17115	-1266	5516	-1690	-3600	-2797	4433
D:	979.22	-46	315	17115	-1266	5516	-1690	-3600	-2797	4433
D:	980.18	-46	315	17115	-1364	4460	-1583	-3600	-2797	4433
D:	981.15	5	50	16832	-1364	4460	-1583	-3600	-2797	4433
D:	982.17	5	50	16832	-1364	4460	-1583	-3600	-2797	4433
D:	983.09	5	50	16832	-1364	4460	-1583	-3600	-2797	4433
D:	983.93	5	50	16832	-1364	3622	-1769	-3600	-2797	4433
D:	984.85	-246	-414	16646	-1359	3622	-1769	-3600	-2797	4433
D:	985.96	-246	-414	16646	-1359	3622	-1769	-3600	-2797	4433
D:	987.11	-246	-414	16646	-1359	3622	-1769	-3600	-2797	4433
D:	988.17	-246	-414	16646	-1818	3219	-2134	-3600	-2797	4433
D:	989.18	-861	-758	16806	-1818	3219	-2134	-3600	-2797	4433
D:	990.30	-861	-758	16806	-1818	3219	-2134	-3508	-2786	4782
D:	991.28	-861	-758	16806	-1818	3219	-2134	-3508	-2786	4782
D:	992.12	-861	-758	16806	-2901	2989	-2487	-3508	-2786	4782
D:	993.08	-1153	-1538	16303	-2901	2989	-2487	-3508	-2786	4782
D:	994.21	-1153	-1538	16303	-2901	2989	-2487	-3508	-2786	4782
D:	995.25	-1153	-1538	16303	-2901	2989	-2487	-3508	-2786	4782
D:	996.11	-1153	-1538	16303	-3000	2040	-2865	-3508	-2786	4782
D:	997.06	-516	-1483	16370	-3000	2040	-2865	-3508	-2786	4782
D:	997.93	-516	-1483	16370	-3000	2040	-2865	-3508	-2786	4782
D:	998.77	-516	-1483	16370	-3000	2040	-2865	-3508	-2786	4782
D:	999.62	-516	-1483	16370	-3000	2044	-2912	-3508	-2786	4782
D:	1000.49	-516	-1483	16289	-2936	2044	-2912	-3508	-2786	4782
D:	1001.33	-733	-1581	16289	-2936	2044	-2912	-3508	-2786	4782
D:	1002.17	-733	-1581	16289	-2936	2044	-2912	-3508	-2786	4782
D:	1003.02	-733	-1581	16289	-2936	2044	-2912	-3508	-2786	4782
D:	1003.88	-733	-1581	16289	-3192	2716	-3231	-3508	-2786	4782
D:	1004.82	-1253	-1615	16721	-3240	2716	-3231	-3508	-2786	4782
D:	1005.76	-1253	-1615	16721	-3240	2716	-3231	-3508	-2786	4782
D:	1006.63	-1253	-1615	16721	-3240	2716	-3231	-3508	-2786	4782
D:	1007.55	-1253	-1615	16721	-3240	2875	-3534	-3508	-2786	4782
D:	1008.43	-1253	-1615	16721	-3536	2875	-3534	-3508	-2786	4782
D:	1009.40	-1391	-1675	16898	-3536	2875	-3534	-3508	-2748	4591
D:	1010.56	-1391	-1675	16898	-3536	2875	-3534	-3425	-2748	4591
D:	1011.82	-1391	-1675	16898	-3536	2549	-4021	-3425	-2748	4591
D:	1013.05	-1404	-1662	16869	-3778	2549	-4021	-3425	-2748	4591
D:	1014.20	-1404	-1662	16869	-3778	2549	-4021	-3425	-2748	4591
D:	1015.08	-1404	-1662	16869	-3778	2549	-4021	-3425	-2748	4591
D:	1016.03	-1404	-1662	16869	-3865	2222	-3839	-3425	-2748	4591
D:	1016.94	-1564	-1677	16415	-3865	2222	-3839	-3425	-2748	4591
D:	1017.80	-1564	-1677	16415	-3865	2222	-3839	-3425	-2748	4591
D:	1018.64	-1564	-1677	16415	-3865	2222	-3839	-3425	-2748	4591
D:	1019.49	-1564	-1677	16415	-3865	2222	-3839	-3425	-2748	4591
D:	1020.36	-1564	-1677	16415	-3728	1758	-4077	-3425	-2748	4591
D:	1021.38	-1618	-1690	15203	-3728	1758	-4077	-3425	-2748	4591
D:	1022.41	-1618	-1690	15203	-3728	1758	-4077	-3425	-2748	4591
D:	1023.34	-1618	-1690	15203	-3728	1758	-4077	-3425	-2748	4591
D:	1024.21	-1618	-1690	15203	-2955	899	-4320	-3425	-2748	4591
D:	1025.08	-1423	-1441	14974	-2955	899	-4320	-3425	-2748	4591
D:	1026.15	-1423	-1441	14974	-2955	899	-4320	-3425	-2748	4591
D:	1027.13	-1423	-1441	14974	-2955	899	-4320	-3425	-2748	4591
D:	1028.10	-1423	-1441	14974	-2187	474	-4612	-3425	-2748	4591
D:	1029.08	-875	-1021	15069	-2187	474	-4612	-3425	-2748	4591
D:	1030.04	-875	-1021	15069	-2187	474	-4612	-3360	-2781	4813
D:	1031.09	-875	-1021	15069	-2187	474	-4612	-3360	-2781	4813
D:	1031.98	-875	-1021	15069	-1685	762	-5243	-3360	-2781	4813
D:	1032.85	-644	-1035	15627	-1685	762	-5243	-3360	-2781	4813
D:	1033.79	-644	-1035	15627	-1685	762	-5243	-3360	-2781	4813
D:	1034.67	-644	-1035	15627	-1685	762	-5243	-3360	-2781	4813
D:	1035.55	-644	-1035	15627	-1685	1922	-5567	-3360	-2781	4813
D:	1036.39	-644	-1035	15627	-2990	1922	-5567	-3360	-2781	4813
D:	1037.27	-904	-1039	17791	-2990	1922	-5567	-3360	-2781	4813
D:	1038.10	-904	-1039	17791	-2990	1922	-5567	-3360	-2781	4813
D:	1038.97	-904	-1039	17791	-2990	1922	-5567	-3360	-2781	4813
D:	1039.83	-904	-1039	17791	-2990	1129	-4684	-3360	-2781	4813
D:	1040.67	-1318	-95	17123	-3006	1129	-4684	-3360	-2781	4813
D:	1041.78	-1318	-95	17123	-3006	1129	-4684	-3360	-2781	4813
D:	1042.83	-1318	-95	17123	-3006	1129	-4684	-3360	-2781	4813
D:	1043.87	-1318	-95	17123	-2750	-321	-4738	-3360	-2781	4813
D:	1044.84	-702	202	16072	-2778	-321	-4738	-3360	-2781	4813
D:	1045.91	-702	202	16072	-2778	-321	-4738	-3360	-2781	4813
D:	1046.79	-702	202	16072	-2778	-321	-4738	-3360	-2781	4813
D:	1047.66	-702	202	16072	-2778	-351	-5954	-3360	-2781	4813
D:	1048.67	230	792	14962	-2974	-351	-5954	-3360	-2781	4813
D:	1049.65	230	792	14962	-2974	-351	-5954	-3360	-2781	4557
D:	1050.51	230	792	14962	-2974	-351	-5954	-3360	-2781	4557
D:	1051.37	230	792	14962	-2974	-351	-5954	-3360	-2781	4557
D:	1052.52	952	1115	14268	-2665	-299	-5933	-3360	-2781	4557
D:	1053.52	952	1115	14268	-2665	-299	-5933	-3306	-2812	4579
D:	1054.39	952	1115	14268	-2665	-299	-5933	-3306	-2812	4579
D:	1055.25	952	1115	14268	-2665	-299	-5933	-3306	-2812	4579
D:	1056.13	952	1115	14268	-2001	-448	-4717	-3306	-2812	4579
D:	1057.05	828	1329	14379	-2001	-448	-4717	-3306	-2812	4579
D:	1057.93	828	1329	14379	-2001	-448	-4717	-3306	-2812	4579
D:	1058.93	828	1329	14379	-2001	-448	-4717	-3306	-2812	4579
D:	1060.00	828	1329	14379	-1115	-636	-4051	-3306	-2812	4579
D:	1060.93	988	670	13114	-1115	-636	-4051	-3306	-2812	4579
D:	1061.79	988	670	13114	-1115	-636	-4051	-3306	-2812	4579
D:	1062.66	988	670	13114	-1115	-636	-4051	-3306	-2812	4579
D:	1063.62	988	670	13114	-1115	294	-4149	-3306	-2812	4579
D:	1064.50	988	670	14761	-609	294	-4149	-3306	-2812	4579
D:	1065.37	689	872	14761	-609	294	-4149	-3306	-2812	4579
D:	1066.45	689	872	14761	-609	294	-4149	-3306	-2812	4579
D:	1067.58	689	872	14761	-609	1300	-3680	-3306	-2812	4579
D:	1068.43	449	1046	15929	-505	1300	-3680	-3306	-2812	4579
D:	1069.56	449	1046	15929	-505	1300	-3680	-3306	-2812	4579
D:	1070.50	449	1046	15929	-505	1300	-3680	-3306	-2812	4579
D:	1071.43	449	1046	15929	-505	1300	-3680	-3306	-2812	4579
D:	1072.31	449	1046	15929	-567	1274	-3291	-3306	-2812	4579
D:	1073.30	427	924	16344	-567	1274	-3291	-3306	-2841	4791
D:	1074.40	427	924	16344	-567	1274	-3291	-3258	-2841	4791
D:	1075.33	427	924	16344	-567	1274	-3291	-3258	-2841	4791
D:	1076.20	427	924	16344	-841	1299	-3473	-3258	-2841	4791
D:	1077.08	254	946	16221	-841	1299	-3473	-3258	-2841	4791
D:	1077.93	254	946	16221	-841	1299	-3473	-3258	-2841	4791
D:	1078.77	254	946	16221	-841	1299	-3473	-3258	-2841	4791
D:	1079.62	254	946	16221	-841	771	-2901	-3258	-2841	4791
D:	1080.70	619	1649	16448	-541	771	-2901	-3258	-2841	4791
D:	1081.67	619	1649	16448	-541	771	-2901	-3258	-2841	4791
D:	1082.55	619	1649	16448	-541	771	-2901	-3258	-2841	4791
D:	1083.41	619	1649	16448	-541	771	-2901	-3258	-2841	4791
D:	1084.25	619	1649	16448	-683	558	-2551	-3258	-2841	4791
D:	1085.10	622	1524	16639	-683	558	-2551	-3258	-2841	4791
D:	1085.93	622	1524	16639	-683	558	-2551	-3258	-2841	4791
D:	1086.77	622	1524	16639	-683	558	-2551	-3258	-2841	4791
D:	1087.65	622	1524	16639	-683	576	-2297	-3258	-2841	4791
D:	1088.72	541	1498	16289	-1255	576	-2297	-3258	-2841	4791
D:	1089.95	541	1498	16289	-1255	576	-2297	-3258	-2841	4791
D:	1090.78	541	1498	16289	-1255	576	-2297	-3258	-2841	4791
D:	1091.65	541	1498	16289	-1255	918	-2605	-3258	-2841	4791
D:	1092.55	701	958	15424	-1835	918	-2605	-3258	-2841	4791
D:	1093.42	701	958	15424	-1835	918	-2605	-3258	-2841	4791
D:	1094.31	701	958	15424	-1835	918	-2605	-3211	-2857	4659
D:	1095.17	701	958	15424	-1835	918	-2605	-3211	-2857	4659
D:	1096.03	701	958	15424	-2803	1984	-2715	-3211	-2857	4659
D:	1097.11	36	544	15173	-2803	1984	-2715	-3211	-2857	4659
D:	1098.23	36	544	15173	-2803	1984	-2715	-3211	-2857	4659
D:	1099.17	36	544	15173	-2803	1984	-2715	-3211	-2857	4659
D:	1100.04	36	544	15173	-2586	1940	-2257	-3211	-2857	4659
D:	1100.98	287	776	14728	-2586	1940	-2257	-3211	-2857	4659
D:	1101.93	287	776	14728	-2586	1940	-2257	-3211	-2857	4659
D:	1102.96	287	776	14728	-2586	1940	-2257	-3211	-2857	4659
D:	1103.84	287	776	14728	-2586	2102	-2019	-3211	-2857	4659
D:	1104.70	399	553	14767	-2795	2102	-2019	-3211	-2857	4659
D:	1105.60	399	553	14767	-2795	2102	-2019	-3211	-2857	4659
D:	1106.49	399	553	14767	-2795	2102	-2019	-3211	-2857	4659
D:	1107.42	399	553	14767	-2795	2102	-2019	-3211	-2857	4659
D:	1108.53	194	251	14230	-3350	2725	-2095	-3211	-2857	4659
D:	1109.50	194	251	14230	-3350	2725	-2095	-3211	-2857	4659
D:	1110.37	194	251	14230	-3350	2725	-2095	-3211	-2857	4659
D:	1111.23	194	251	14230	-3350	2725	-2095	-3211	-2857	4659
D:	1112.11	194	251	14230	-3567	3478	-2208	-3211	-2857	4659
D:	1113.09	-293	-269	14404	-3567	3478	-2208	-3211	-2857	4659
D:	1113.97	-293	-269	14404	-3567	3478	-2208	-3152	-2849	4888
D:	1114.86	-293	-269	14404	-3567	3478	-2208	-3152	-2849	4888
D:	1115.73	-293	-269	14404	-3567	3751	-2291	-3152	-2849	4888
D:	1116.60	-776	-528	14828	-3428	3751	-2291	-3152	-2849	4888
D:	1117.49	-776	-528	14828	-3428	3751	-2291	-3152	-2849	4888
D:	1118.35	-776	-528	14828	-3428	3751	-2291	-3152	-2849	4888
D:	1119.22	-776	-528	14828	-3428	3751	-2291	-3152	-2849	4888
D:	1120.09	-776	-528	14828	-3374	3577	-2567	-3152	-2849	4888
D:	1120.95	-978	-785	14686	-3374	3577	-2567	-3152	-2849	4888
D:	1121.80	-978	-785	14686	-3374	3577	-2567	-3152	-2849	4888
D:	1122.68	-978	-785	14686	-3374	3577	-2567	-3152	-2849	4888
D:	1123.55	-978	-785	14686	-3374	3577	-2567	-3152	-2849	4888
D:	1124.42	-978	-785	14686	-3041	3126	-2714	-3152	-2849	4888
D:	1125.31	-1018	-936	14754	-3041	3126	-2714	-3152	-2849	4888
D:	1126.32	-1018	-936	14754	-3041	3126	-2714	-3152	-2849	4888
D:	1127.47	-1018	-936	14754	-3041	3126	-2714	-3152	-2849	4888
D:	1128.33	-1018	-936	14754	-2700	2583	-2848	-3152	-2849	4888
D:	1129.29	-891	-659	14846	-2700	2583	-2848	-3152	-2849	4888
D:	1130.40	-891	-659	14846	-2700	2583	-2848	-3152	-2849	4888
D:	1131.56	-891	-659	14846	-2700	1765	-2623	-3152	-2849	4888
D:	1132.49	-891	-659	14822	-2065	1765	-2623	-3152	-2849	4888
D:	1133.36	-609	-736	14822	-2065	1765	-2623	-3152	-2849	4888
D:	1134.23	-609	-736	14822	-2065	1765	-2623	-3066	-2844	4803
D:	1135.10	-609	-736	14822	-2065	1765	-2623	-3066	-2844	4803
D:	1135.97	-609	-736	14822	-1704	1580	-2971	-3066	-2844	4803
D:	1136.83	-794	-829	15195	-1704	1580	-2971	-3066	-2844	4803
D:	1137.69	-794	-829	15195	-1704	1580	-2971	-3066	-2844	4803
D:	1138.63	-794	-829	15195	-1704	1580	-2971	-3066	-2844	4803
D:	1139.50	-794	-829	15195	-1704	1580	-2971	-3066	-2844	4803
D:	1140.37	-794	-829	15195	-1778	1828	-3456	-3066	-2844	4803
D:	1141.22	-866	-790	15590	-1778	1828	-3456	-3066	-2844	4803
D:	1142.10	-866	-790	15590	-1778	1828	-3456	-3066	-2844	4803
D:	1142.95	-866	-790	15590	-1778	1828	-3456	-3066	-2844	4803
D:	1143.80	-866	-790	15590	-1778	1522	-3940	-3066	-2844	4803
D:	1144.78	-739	-613	15787	-1658	1522	-3940	-3066	-2844	4803
D:	1145.89	-739	-613	15787	-1658	1522	-3940	-3066	-2844	4803
D:	1147.17	-739	-613	15787	-1658	1522	-3940	-3066	-2844	4803
D:	1148.21	-739	-613	15787	-1617	1124	-3534	-3066	-2844	4803
D:	1149.30	-781	-422	16302	-1617	1124	-3534	-3066	-2844	4803
D:	1150.20	-781	-422	16302	-1617	1124	-3534	-3066	-2844	4803
D:	1151.07	-781	-422	16302	-1617	1124	-3534	-3066	-2844	4803
D:	1151.93	-781	-422	16302	-1105	267	-3181	-3066	-2844	4803
D:	1152.77	-644	-341	16117	-1187	267	-3181	-3066	-2844	4803
D:	1153.65	-644	-341	16117	-1187	267	-3181	-3020	-2824	5057
D:	1154.55	-644	-341	16117	-1187	267	-3181	-3020	-2824	5057
D:	1155.67	-644	-341	16117	-1187	-205	-3241	-3020	-2824	5057
D:	1156.74	-130	586	16240	-833	-205	-3241	-3020	-2824	5057
D:	1157.62	-130	586	16240	-833	-205	-3241	-3020	-2824	5057
D:	1158.49	-130	586	16240	-833	-205	-3241	-3020	-2824	5057
D:	1159.38	-130	586	16240	-833	-205	-3241	-3020	-2824	5057
D:	1160.25	-130	586	16240	-1435	416	-4314	-3020	-2824	5057
D:	1161.16	222	218	15628	-1435	416	-4314	-3020	-2824	5057
D:	1162.08	222	218	15628	-1435	416	-4314	-3020	-2824	5057
D:	1162.93	222	218	15628	-1435	416	-4314	-3020	-2824	5057
D:	1163.98	222	218	15628	-1774	857	-4285	-3020	-2824	5057
D:	1165.02	-299	499	16256	-1774	857	-4285	-3020	-2824	5057
D:	1165.86	-299	499	16256	-1774	857	-4285	-3020	-2824	5057
D:	1166.84	-299	499	16256	-1774	857	-4285	-3020	-2824	5057
D:	1167.95	-299	499	16256	-2013	677	-4025	-3020	-2824	5057
D:	1168.99	-421	104	16172	-2013	677	-4025	-3020	-2824	5057
D:	1169.99	-421	104	16172	-2013	677	-4025	-3020	-2824	5057
D:	1170.84	-421	104	16172	-2013	677	-4025	-3020	-2824	5057
D:	1171.67	-421	104	16172	-2013	211	-3516	-3020	-2824	5057
D:	1172.54	-75	661	16298	-1506	211	-3516	-3020	-2824	5057
D:	1173.62	-75	661	16298	-1506	211	-3516	-2987	-2837	5024
D:	1174.69	-75	661	16298	-1506	211	-3516	-2987	-2837	5024
D:	1175.75	-75	661	16298	-1506	-264	-3020	-2987	-2837	5024
D:	1176.79	-119	705	16629	-1400	-264	-3020	-2987	-2837	5024
D:	1177.65	-119	705	16629	-1400	-264	-3020	-2987	-2837	5024
D:	1178.55	-119	705	16629	-1400	-264	-3020	-2987	-2837	5024
D:	1179.39	-119	705	16629	-1400	-264	-3020	-2987	-2837	5024
D:	1180.35	-119	705	16629	-1642	-369	-3199	-2987	-2837	5024
D:	1181.25	-155	456	16225	-1642	-369	-3199	-2987	-2837	5024
D:	1182.12	-155	456	16225	-1642	-369	-3199	-2987	-2837	5024
D:	1183.09	-155	456	16225	-1642	-369	-3199	-2987	-2837	5024
D:	1183.93	-155	456	16225	-1642	-517	-3284	-2987	-2837	5024
D:	1184.77	-178	564	16678	-1715	-517	-3284	-2987	-2837	5024
D:	1185.62	-178	564	16678	-1715	-517	-3284	-2987	-2837	5024
D:	1186.51	-178	564	16678	-1715	-517	-3284	-2987	-2837	5024
D:	1187.43	-178	564	16678	-1715	-513	-3300	-2987	-2837	5024
D:	1188.71	-69	560	16645	-1660	-513	-3300	-2987	-2837	5024
D:	1189.78	-69	560	16645	-1660	-513	-3300	-2987	-2837	5024
D:	1190.77	-69	560	16645	-1660	-513	-3300	-2987	-2837	5024
D:	1191.67	-69	560	16645	-1660	-677	-3316	-2987	-2837	5024
D:	1192.55	-231	416	16364	-1998	-677	-3316	-2987	-2837	5024
D:	1193.42	-231	416	16364	-1998	-677	-3316	-2987	-2837	5024
D:	1194.31	-231	416	16364	-1998	-677	-3316	-2968	-2848	5028
D:	1195.17	-231	416	16364	-1998	-677	-3316	-2968	-2848	5028
D:	1196.04	-231	416	16364	-1883	-968	-2947	-2968	-2848	5028
D:	1196.93	-625	552	16855	-1883	-968	-2947	-2968	-2848	5028
D:	1197.90	-625	552	16855	-1883	-968	-2947	-2968	-2848	5028
D:	1198.88	-625	552	16855	-1883	-968	-2947	-2968	-2848	5028
D:	1199.72	-625	552	16855	-1883	-607	-3686	-2968	-2848	5028
D:	1200.64	-990	-243	16542	-2597	-607	-3686	-2968	-2848	5028
D:	1201.51	-990	-243	16542	-2597	-607	-3686	-2968	-2848	5028
D:	1202.38	-990	-243	16542	-2597	-607	-3686	-2968	-2848	5028
D:	1203.22	-990	-243	16542	-2597	-607	-3686	-2968	-2848	5028
D:	1204.10	-990	-243	16542	-2891	-1025	-4372	-2968	-2848	5028
D:	1205.04	-597	-257	16572	-2891	-1025	-4372	-2968	-2848	5028
D:	1206.12	-597	-257	16572	-2891	-1025	-4372	-2968	-2848	5028
D:	1207.14	-597	-257	16572	-2891	-1025	-4372	-2968	-2848	5028
D:	1208.12	-597	-257	16572	-3040	-1047	-4528	-2968	-2848	5028
D:	1209.08	-237	-519	16009	-3040	-1047	-4528	-2968	-2848	5028
D:	1209.93	-237	-519	16009	-3040	-1047	-4528	-2968	-2848	5028
D:	1210.77	-237	-519	16009	-3040	-1047	-4528	-2968	-2848	5028
D:	1211.62	-237	-519	16009	-3040	-738	-4438	-2968	-2848	5028
D:	1212.49	-237	-519	16009	-2943	-738	-4438	-2968	-2848	5028
D:	1213.42	-416	-573	15973	-2943	-738	-4438	-2968	-2848	5028
D:	1214.53	-416	-573	15973	-2943	-738	-4438	-2968	-2848	5028
D:	1215.50	-416	-573	15973	-2943	-738	-4438	-2968	-2848	5028
D:	1216.37	-416	-573	15973	-2685	-177	-4241	-2968	-2848	5028
D:	1217.20	-917	-85	17051	-2685	-177	-4241	-2968	-2848	5028
D:	1218.07	-917	-85	17051	-2685	-177	-4241	-2930	-2875	5157
D:	1218.93	-917	-85	17051	-2685	-177	-4241	-2930	-2875	5157
D:	1219.77	-917	-85	17051	-2685	312	-4711	-2930	-2875	5157
D:	1220.66	-853	-606	17256	-3341	312	-4711	-2930	-2875	5157
D:	1221.55	-853	-606	17256	-3341	312	-4711	-2930	-2875	5157
D:	1222.40	-853	-606	17256	-3341	312	-4711	-2930	-2875	5157
D:	1223.27	-853	-606	17256	-3341	312	-4711	-2930	-2875	5157
D:	1224.13	-853	-606	17256	-3798	-30	-4872	-2930	-2875	5157
D:	1225.06	-1634	-725	17128	-3798	-30	-4872	-2930	-2875	5157
D:	1226.04	-1634	-725	17128	-3798	-30	-4872	-2930	-2875	5157
D:	1226.93	-1634	-725	17128	-3798	-30	-4872	-2930	-2875	5157
D:	1227.90	-1634	-725	17128	-3798	-1026	-5059	-2930	-2875	5157
D:	1228.85	-1051	-734	15805	-3683	-1026	-5059	-2930	-2875	5157
D:	1229.70	-1051	-734	15805	-3683	-1026	-5059	-2930	-2875	5157
D:	1230.79	-1051	-734	15805	-3683	-1026	-5059	-2930	-2875	5157
D:	1231.77	-1051	-734	15805	-3683	-2012	-5494	-2930	-2875	5157
D:	1232.64	-475	-107	15519	-3267	-2012	-5494	-2930	-2875	5157
D:	1233.55	-475	-107	15519	-3267	-2012	-5494	-2930	-2875	5157
D:	1234.41	-475	-107	15519	-3267	-2012	-5494	-2930	-2875	5157
D:	1235.28	-475	-107	15519	-3267	-2012	-5494	-2930	-2875	5157
D:	1236.14	-475	-107	15519	-2917	-2125	-5420	-2930	-2875	5157
D:	1237.18	-243	269	15205	-2917	-2125	-5420	-2930	-2875	5157
D:	1238.19	-243	269	15205	-2917	-2125	-5420	-2893	-2843	5102
D:	1239.09	-243	269	15205	-2917	-2125	-5420	-2893	-2843	5102
D:	1239.95	-243	269	15205	-2812	-2057	-5116	-2893	-2843	5102
D:	1240.79	-71	43	15465	-2812	-2057	-5116	-2893	-2843	5102
D:	1241.65	-71	43	15465	-2812	-2057	-5116	-2893	-2843	5102
D:	1242.55	-71	43	15465	-2812	-2057	-5116	-2893	-2843	5102
D:	1243.53	-71	43	15465	-2812	-1748	-4919	-2893	-2843	5102
D:	1244.49	-71	43	15465	-2436	-1748	-4919	-2893	-2843	5102
D:	1245.33	-157	-143	15200	-2436	-1748	-4919	-2893	-2843	5102
D:	1246.29	-157	-143	15200	-2436	-1748	-4919	-2893	-2843	5102
D:	1247.17	-157	-143	15200	-2436	-1748	-4919	-2893	-2843	5102
D:	1248.26	-157	-143	15200	-1992	-1640	-4627	-2893	-2843	5102
D:	1249.14	-148	-409	15736	-1992	-1640	-4627	-2893	-2843	5102
D:	1250.07	-148	-409	15736	-1992	-1640	-4627	-2893	-2843	5102
D:	1250.93	-148	-409	15736	-1992	-1640	-4627	-2893	-2843	5102
D:	1251.77	-148	-409	15736	-1992	-1338	-4532	-2893	-2843	5102
D:	1252.72	-271	-389	15937	-1746	-1338	-4532	-2893	-2843	5102
D:	1253.77	-271	-389	15937	-1746	-1338	-4532	-2893	-2843	5102
D:	1254.78	-271	-389	15937	-1746	-1338	-4532	-2893	-2843	5102
D:	1255.64	-271	-389	15937	-1746	-1320	-4333	-2893	-2843	5102
D:	1256.55	-409	-391	16188	-1542	-1320	-4333	-2893	-2843	5102
D:	1257.43	-409	-391	16188	-1542	-1320	-4333	-2893	-2843	5102
D:	1258.31	-409	-391	16188	-1542	-1320	-4333	-2882	-2852	4774
D:	1259.17	-409	-391	16188	-1542	-1320	-4333	-2882	-2852	4774
D:	1260.04	-409	-391	16188	-1494	-1576	-4203	-2882	-2852	4774
D:	1260.95	3	448	15422	-1494	-1576	-4203	-2882	-2852	4774
D:	1261.79	3	448	15422	-1494	-1576	-4203	-2882	-2852	4774
D:	1262.64	3	448	15422	-1494	-1576	-4203	-2882	-2852	4774
D:	1263.57	3	448	15422	-1494	-1019	-3831	-2882	-2852	4774
D:	1264.49	3	448	16422	-1606	-1019	-3831	-2882	-2852	4774
D:	1265.36	-265	-1043	16422	-1606	-1019	-3831	-2882	-2852	4774
D:	1266.56	-265	-1043	16422	-1606	-1019	-3831	-2882	-2852	4774
D:	1267.63	-265	-1043	16422	-1606	-1355	-3456	-2882	-2852	4774
D:	1268.55	-884	-945	15690	-1538	-1355	-3456	-2882	-2852	4774
D:	1269.49	-884	-945	15690	-1538	-1355	-3456	-2882	-2852	4774
D:	1270.36	-884	-945	15690	-1538	-1355	-3456	-2882	-2852	4774
D:	1271.25	-884	-945	15690	-1538	-1355	-3456	-2882	-2852	4774
D:	1272.12	-884	-945	15690	-1272	-2096	-3831	-2882	-2852	4774
D:	1273.09	-412	-842	14990	-1272	-2096	-3831	-2882	-2852	4774
D:	1273.95	-412	-842	14990	-1272	-2096	-3831	-2882	-2852	4774
D:	1274.80	-412	-842	14990	-1272	-2096	-3831	-2882	-2852	4774
D:	1275.66	-412	-842	14990	-1272	-1636	-3981	-2882	-2852	4774
D:	1276.56	-259	-787	15151	-1026	-1636	-3981	-2882	-2852	4774
D:	1277.42	-259	-787	15151	-1026	-1636	-3981	-2882	-2852	4774
D:	1278.31	-259	-787	15151	-1026	-1636	-3981	-2856	-2859	4992
D:	1279.17	-259	-787	15151	-1026	-1636	-3981	-2856	-2859	4992
D:	1280.04	-259	-787	15151	-887	-1290	-3858	-2856	-2859	4992
D:	1280.88	-355	-777	15573	-887	-1290	-3858	-2856	-2859	4992
D:	1281.72	-355	-777	15573	-887	-1290	-3858	-2856	-2859	4992
D:	1282.64	-355	-777	15573	-887	-1290	-3858	-2856	-2859	4992
D:	1283.50	-355	-777	15573	-887	-1290	-3858	-2856	-2859	4992
D:	1284.37	-355	-777	15573	-771	-1039	-3745	-2856	-2859	4992
D:	1285.24	-404	-758	15564	-771	-1039	-3745	-2856	-2859	4992
D:	1286.12	-404	-758	15564	-771	-1039	-3745	-2856	-2859	4992
D:	1287.04	-404	-758	15564	-771	-1039	-3745	-2856	-2859	4992
D:	1288.23	-404	-758	15564	-664	-844	-3669	-2856	-2859	4992
D:	1289.11	-468	-911	15611	-664	-844	-3669	-2856	-2859	4992
D:	1290.05	-468	-911	15611	-664	-844	-3669	-2856	-2859	4992
D:	1290.93	-468	-911	15611	-664	-844	-3669	-2856	-2859	4992
D:	1291.77	-468	-911	15611	-664	-548	-3746	-2856	-2859	4992
D:	1292.65	-308	-768	15850	-557	-548	-3746	-2856	-2859	4992
D:	1293.51	-308	-768	15850	-557	-548	-3746	-2856	-2859	4992
D:	1294.37	-308	-768	15850	-557	-548	-3746	-2856	-2859	4992
D:	1295.22	-308	-768	15850	-557	-548	-3746	-2856	-2859	4992
D:	1296.08	-308	-768	15850	-454	-782	-3807	-2856	-2859	4992
D:	1296.95	-417	-634	16206	-454	-782	-3807	-2856	-2859	4992
D:	1297.81	-417	-634	16206	-454	-782	-3807	-2815	-2872	4931
D:	1298.69	-417	-634	16206	-454	-782	-3807	-2815	-2872	4931
D:	1299.64	-417	-634	16206	-454	-1023	-3909	-2815	-2872	4931
D:	1300.53	-257	-276	16186	-483	-1023	-3909	-2815	-2872	4931
D:	1301.57	-257	-276	16186	-483	-1023	-3909	-2815	-2872	4931
D:	1302.52	-257	-276	16186	-483	-1023	-3909	-2815	-2872	4931
D:	1303.38	-257	-276	16186	-483	-1023	-3909	-2815	-2872	4931
D:	1304.24	-257	-276	16186	-477	-1288	-4165	-2815	-2872	4931
D:	1305.10	-215	-11	16544	-477	-1288	-4165	-2815	-2872	4931
D:	1306.22	-215	-11	16544	-477	-1288	-4165	-2815	-2872	4931
D:	1307.15	-215	-11	16544	-477	-1288	-4165	-2815	-2872	4931
D:	1308.12	-215	-11	16544	-573	-1513	-4388	-2815	-2872	4931
D:	1309.22	60	56	16650	-573	-1513	-4388	-2815	-2872	4931
D:	1310.23	60	56	16650	-573	-1513	-4388	-2815	-2872	4931
D:	1311.17	60	56	16650	-573	-1513	-4388	-2815	-2872	4931
D:	1312.05	60	56	16650	-747	-1684	-4337	-2815	-2872	4931
D:	1312.93	412	-13	16638	-747	-1684	-4337	-2815	-2872	4931
D:	1313.89	412	-13	16638	-747	-1684	-4337	-2815	-2872	4931
D:	1314.96	412	-13	16638	-747	-1684	-4337	-2815	-2872	4931
D:	1315.80	412	-13	16638	-747	-1601	-4073	-2815	-2872	4931
D:	1316.67	473	284	17295	-658	-1601	-4073	-2815	-2872	4931
D:	1317.55	473	284	17295	-658	-1601	-4073	-2822	-2873	5041
D:	1318.42	473	284	17295	-658	-1601	-4073	-2822	-2873	5041
D:	1319.53	473	284	17295	-658	-1504	-4043	-2822	-2873	5041
D:	1320.49	473	284	17295	-582	-1504	-4043	-2822	-2873	5041
D:	1321.36	370	384	17910	-582	-1504	-4043	-2822	-2873	5041
D:	1322.22	370	384	17910	-582	-1504	-4043	-2822	-2873	5041
D:	1323.09	370	384	17910	-582	-1504	-4043	-2822	-2873	5041
D:	1323.94	370	384	17910	-582	-1945	-4204	-2822	-2873	5041
D:	1324.77	195	1122	18384	-753	-1945	-4204	-2822	-2873	5041
D:	1325.72	195	1122	18384	-753	-1945	-4204	-2822	-2873	5041
D:	1326.83	195	1122	18384	-753	-1945	-4204	-2822	-2873	5041
D:	1327.76	195	1122	18384	-753	-2861	-4461	-2822	-2873	5041
D:	1328.70	1151	1552	17858	-608	-2861	-4461	-2822	-2873	5041
D:	1329.81	1151	1552	17858	-608	-2861	-4461	-2822	-2873	5041
D:	1330.98	1151	1552	17858	-608	-2861	-4461	-2822	-2873	5041
D:	1332.02	1151	1552	17858	-662	-3592	-4347	-2822	-2873	5041
D:	1332.91	1598	1870	17615	-662	-3592	-4347	-2822	-2873	5041
D:	1333.78	1598	1870	17615	-662	-3592	-4347	-2822	-2873	5041
D:	1334.65	1598	1870	17615	-662	-3592	-4347	-2822	-2873	5041
D:	1335.54	1598	1870	17615	-662	-3592	-4347	-2822	-2873	5041
D:	1336.42	1598	1870	17615	-806	-3884	-3800	-2822	-2873	5041
D:	1337.31	1636	1672	16652	-806	-3884	-3800	-2822	-2873	5041
D:	1338.17	1636	1672	16652	-806	-3884	-3800	-2814	-2913	5164
D:	1339.04	1636	1672	16652	-806	-3884	-3800	-2814	-2913	5164
D:	1339.95	1636	1672	16652	-806	-3938	-3171	-2814	-2913	5164
D:	1340.79	1416	1159	15747	-875	-3938	-3171	-2814	-2913	5164
D:	1341.62	1416	1159	15747	-875	-3938	-3171	-2814	-2913	5164
D:	1342.49	1416	1159	15747	-875	-3938	-3171	-2814	-2913	5164
D:	1343.35	1416	1159	15747	-875	-3938	-3171	-2814	-2913	5164
D:	1344.23	1416	1159	15747	-729	-3571	-2730	-2814	-2913	5164
D:	1345.07	1320	1001	15877	-729	-3571	-2730	-2814	-2913	5164
D:	1346.24	1320	1001	15877	-729	-3571	-2730	-2814	-2913	5164
D:	1347.35	1320	1001	15877	-729	-3571	-2730	-2814	-2913	5164
D:	1348.44	1041	576	15482	-678	-3189	-2537	-2814	-2913	5164
D:	1349.57	1041	576	15482	-678	-3189	-2537	-2814	-2913	5164
D:	1350.59	1041	576	15482	-678	-3189	-2537	-2814	-2913	5164
D:	1351.51	1041	576	15482	-678	-3189	-2537	-2814	-2913	5164
D:	1352.38	1041	576	15482	-390	-2809	-2243	-2814	-2913	5164
D:	1353.25	349	367	15940	-390	-2809	-2243	-2814	-2913	5164
D:	1354.09	349	367	15940	-390	-2809	-2243	-2814	-2913	5164
D:	1354.96	349	367	15940	-390	-2809	-2243	-2814	-2913	5164
D:	1355.82	349	367	15940	-390	-3246	-2172	-2814	-2913	5164
D:	1356.70	392	-33	15412	-118	-3246	-2172	-2814	-2913	5164
D:	1357.63	392	-33	15412	-118	-3246	-2172	-2833	-2912	5100
D:	1358.49	392	-33	15412	-118	-3246	-2172	-2833	-2912	5100
D:	1359.36	392	-33	15412	-118	-3246	-2172	-2833	-2912	5100
D:	1360.22	392	-33	15412	-92	-3567	-2074	-2833	-2912	5100
D:	1361.07	588	-443	15256	-92	-3567	-2074	-2833	-2912	5100
D:	1361.93	588	-443	15256	-92	-3567	-2074	-2833	-2912	5100
D:	1362.83	588	-443	15256	-92	-3567	-2074	-2833	-2912	5100
D:	1363.95	588	-443	15256	-164	-3353	-1972	-2833	-2912	5100
D:	1364.92	118	-1232	15271	-164	-3353	-1972	-2833	-2912	5100
D:	1365.79	118	-1232	15271	-164	-3353	-1972	-2833	-2912	5100
D:	1366.66	118	-1232	15271	-164	-3353	-1972	-2833	-2912	5100
D:	1367.57	118	-1232	15271	-164	-3070	-2017	-2833	-2912	5100
D:	1368.52	-303	-1818	15178	-83	-3070	-2017	-2833	-2912	5100
D:	1369.60	-303	-1818	15178	-83	-3070	-2017	-2833	-2912	5100
D:	1370.50	-303	-1818	15178	-83	-3070	-2017	-2833	-2912	5100
D:	1371.32	-303	-1818	15178	-83	-3070	-2017	-2833	-2912	5100
D:	1372.18	-303	-1818	15178	-41	-2597	-2369	-2833	-2912	5100
D:	1373.03	-405	-1990	15302	-41	-2597	-2369	-2833	-2912	5100
D:	1373.93	-405	-1990	15302	-41	-2597	-2369	-2833	-2912	5100
D:	1374.81	-405	-1990	15302	-41	-2597	-2369	-2833	-2912	5100
D:	1375.69	-405	-1990	15302	-41	-2579	-2628	-2833	-2912	5100
D:	1376.64	-589	-2350	15419	-93	-2579	-2628	-2833	-2912	5100
D:	1377.50	-589	-2350	15419	-93	-2579	-2628	-2833	-2912	5100
D:	1378.37	-589	-2350	15419	-93	-2579	-2628	-2833	-2912	5100
D:	1379.22	-589	-2350	15419	-93	-2579	-2628	-2833	-2912	5100
D:	1380.23	-589	-2350	15419	-30	-2850	-2962	-2833	-2912	5100
D:	1381.26	-457	-2574	14524	-30	-2850	-2962	-2833	-2912	5100
D:	1382.18	-457	-2574	14524	-30	-2850	-2962	-2856	-2962	5132
D:	1383.02	-457	-2574	14524	-30	-2850	-2962	-2856	-2962	5132
D:	1383.91	-457	-2574	14524	226	-2776	-3498	-2856	-2962	5132
D:	1384.74	-390	-2235	14654	27	-2776	-3498	-2856	-2962	5132
D:	1385.59	-390	-2235	14654	27	-2776	-3498	-2856	-2962	5132
D:	1386.71	-390	-2235	14654	27	-2776	-3498	-2856	-2962	5132
D:	1387.79	-390	-2235	14654	27	-2372	-3892	-2856	-2962	5132
D:	1388.85	68	-2128	14282	193	-2372	-3892	-2856	-2962	5132
D:	1389.91	68	-2128	14282	193	-2372	-3892	-2856	-2962	5132
D:	1390.75	68	-2128	14282	193	-2372	-3892	-2856	-2962	5132
D:	1391.60	68	-2128	14282	193	-1979	-3985	-2856	-2962	5132
D:	1392.49	68	-2128	14836	106	-1979	-3985	-2856	-2962	5132
D:	1393.53	5	-2120	14836	106	-1979	-3985	-2856	-2962	5132
D:	1394.52	5	-2120	14836	106	-1979	-3985	-2856	-2962	5132
D:	1395.39	5	-2120	14836	106	-1979	-3985	-2856	-2962	5132
D:	1396.23	5	-2120	14836	145	-1723	-4048	-2856	-2962	5132
D:	1397.09	312	-1891	14107	145	-1723	-4048	-2856	-2962	5132
D:	1397.95	312	-1891	14107	145	-1723	-4048	-2856	-2962	5132
D:	1398.82	312	-1891	14107	145	-1723	-4048	-2856	-2962	5132
D:	1399.67	312	-1891	14107	145	-806	-4465	-2856	-2962	5132
D:	1400.55	688	-1965	14103	107	-806	-4465	-2856	-2962	5132
D:	1401.41	688	-1965	14103	107	-806	-4465	-2856	-2962	5132
D:	1402.26	688	-1965	14103	107	-806	-4465	-2856	-2959	5058
D:	1403.10	688	-1965	14103	107	-806	-4465	-2856	-2959	5058
D:	1403.98	688	-1965	14103	-112	501	-4900	-2856	-2959	5058
D:	1404.83	-260	-1564	14834	-112	501	-4900	-2856	-2959	5058
D:	1405.68	-260	-1564	14834	-112	501	-4900	-2856	-2959	5058
D:	1406.54	-260	-1564	14834	-112	501	-4900	-2856	-2959	5058
D:	1407.52	-260	-1564	14834	-112	872	-4852	-2856	-2959	5058
D:	1408.65	-599	-1166	15717	-45	872	-4852	-2856	-2959	5058
D:	1409.65	-599	-1166	15717	-45	872	-4852	-2856	-2959	5058
D:	1410.51	-599	-1166	15717	-45	872	-4852	-2856	-2959	5058
D:	1411.42	-599	-1166	15717	-45	872	-4852	-2856	-2959	5058
D:	1412.31	-599	-1166	15717	281	-80	-4493	-2856	-2959	5058
D:	1413.37	246	-1213	15548	281	-80	-4493	-2856	-2959	5058
D:	1414.27	246	-1213	15548	281	-80	-4493	-2856	-2959	5058
D:	1415.10	246	-1213	15548	281	-80	-4493	-2856	-2959	5058
D:	1415.97	246	-1213	15548	388	-735	-4416	-2856	-2959	5058
D:	1416.85	655	-1028	15156	388	-735	-4416	-2856	-2959	5058
D:	1417.73	655	-1028	15156	388	-735	-4416	-2856	-2959	5058
D:	1418.63	655	-1028	15156	388	-735	-4416	-2856	-2959	5058
D:	1419.52	655	-1028	15156	388	-735	-4416	-2856	-2959	5058
D:	1420.39	655	-1028	15156	471	-464	-4456	-2856	-2959	5058
D:	1421.24	577	-1114	15302	471	-464	-4456	-2856	-2959	5058
D:	1422.12	577	-1114	15302	471	-464	-4456	-2817	-3008	4961
D:	1423.13	577	-1114	15302	471	-464	-4456	-2817	-3008	4961
D:	1424.08	577	-1114	15302	629	-470	-4425	-2817	-3008	4961
D:	1424.94	108	-1139	15718	629	-470	-4425	-2817	-3008	4961
D:	1425.77	108	-1139	15718	629	-470	-4425	-2817	-3008	4961
D:	1426.79	108	-1139	15718	629	-470	-4425	-2817	-3008	4961
D:	1427.84	108	-1139	15718	629	-871	-4732	-2817	-3008	4961
D:	1428.94	578	-808	15573	775	-871	-4732	-2817	-3008	4961
D:	1429.94	578	-808	15573	775	-871	-4732	-2817	-3008	4961
D:	1430.81	578	-808	15573	775	-871	-4732	-2817	-3008	4961
D:	1431.70	578	-808	15573	775	-1263	-5039	-2817	-3008	4961
D:	1432.64	768	10	16124	924	-1263	-5039	-2817	-3008	4961
D:	1433.54	768	10	16124	924	-1263	-5039	-2817	-3008	4961
D:	1434.42	768	10	16124	924	-1263	-5039	-2817	-3008	4961
D:	1435.40	768	10	16124	924	-1263	-5039	-2817	-3008	4961
D:	1436.28	768	10	16124	926	-1475	-5228	-2817	-3008	4961
D:	1437.15	1920	56	16003	926	-1475	-5228	-2817	-3008	4961
D:	1438.07	1920	56	16003	926	-1475	-5228	-2817	-3008	4961
D:	1438.96	1920	56	16003	926	-1475	-5228	-2817	-3008	4961
D:	1439.83	1920	56	16003	926	-929	-5524	-2817	-3008	4961
D:	1440.69	1173	-313	15211	457	-929	-5524	-2817	-3008	4961
D:	1441.63	1173	-313	15211	457	-929	-5524	-2779	-3040	4934
D:	1442.50	1173	-313	15211	457	-929	-5524	-2779	-3040	4934
D:	1443.37	1173	-313	15211	457	-929	-5524	-2779	-3040	4934
D:	1444.22	1173	-313	15211	309	-467	-5359	-2779	-3040	4934
D:	1445.23	568	-663	16180	309	-467	-5359	-2779	-3040	4934
D:	1446.09	568	-663	16180	309	-467	-5359	-2779	-3040	4934
D:	1447.23	568	-663	16180	309	-467	-5359	-2779	-3040	4934
D:	1448.23	568	-663	16180	442	-636	-5521	-2779	-3040	4934
D:	1449.10	922	-644	15372	442	-636	-5521	-2779	-3040	4934
D:	1449.97	922	-644	15372	442	-636	-5521	-2779	-3040	4934
D:	1450.82	922	-644	15372	442	-636	-5521	-2779	-3040	4934
D:	1451.67	922	-644	15372	442	-341	-5645	-2779	-3040	4934
D:	1452.61	595	-763	15894	244	-341	-5645	-2779	-3040	4934
D:	1453.75	595	-763	15894	244	-341	-5645	-2779	-3040	4934
D:	1454.79	595	-763	15894	244	-341	-5645	-2779	-3040	4934
D:	1455.66	595	-763	15894	244	-167	-5551	-2779	-3040	4934
D:	1456.62	789	-579	15895	260	-167	-5551	-2779	-3040	4934
D:	1457.49	789	-579	15895	260	-167	-5551	-2779	-3040	4934
D:	1458.36	789	-579	15895	260	-167	-5551	-2779	-3040	4934
D:	1459.22	789	-579	15895	260	-167	-5551	-2779	-3040	4934
D:	1460.10	789	-579	15895	169	-79	-5595	-2779	-3040	4934
D:	1460.97	218	-992	15608	169	-79	-5595	-2779	-3040	4934
D:	1461.85	218	-992	15608	169	-79	-5595	-2735	-3101	4959
D:	1462.70	218	-992	15608	169	-79	-5595	-2735	-3101	4959
D:	1463.66	218	-992	15608	169	-71	-5479	-2735	-3101	4959
D:	1464.57	188	-1244	16134	195	-71	-5479	-2735	-3101	4959
D:	1465.76	188	-1244	16134	195	-71	-5479	-2735	-3101	4959
D:	1466.78	188	-1244	16134	195	-71	-5479	-2735	-3101	4959
D:	1467.65	188	-1244	16134	195	-421	-5613	-2735	-3101	4959
D:	1468.71	246	-1371	15933	472	-421	-5613	-2735	-3101	4959
D:	1469.62	246	-1371	15933	472	-421	-5613	-2735	-3101	4959
D:	1470.49	246	-1371	15933	472	-421	-5613	-2735	-3101	4959
D:	1471.33	246	-1371	15933	472	-421	-5613	-2735	-3101	4959
D:	1472.20	246	-1371	15933	391	-528	-6146	-2735	-3101	4959
D:	1473.22	284	-1280	15382	391	-528	-6146	-2735	-3101	4959
D:	1474.21	284	-1280	15382	391	-528	-6146	-2735	-3101	4959
D:	1475.08	284	-1280	15382	391	-528	-6146	-2735	-3101	4959
D:	1475.97	284	-1280	15382	316	-310	-6097	-2735	-3101	4959
D:	1476.80	444	-1481	16296	316	-310	-6097	-2735	-3101	4959
D:	1477.70	444	-1481	16296	316	-310	-6097	-2735	-3101	4959
D:	1478.71	444	-1481	16296	316	-310	-6097	-2735	-3101	4959
D:	1479.88	444	-1481	16296	60	-156	-6318	-2735	-3101	4959
D:	1480.75	420	-1784	15757	138	-156	-6318	-2735	-3101	4959
D:	1481.63	420	-1784	15757	138	-156	-6318	-2671	-3136	5152
D:	1482.49	420	-1784	15757	138	-156	-6318	-2671	-3136	5152
D:	1483.36	420	-1784	15757	138	-156	-6318	-2671	-3136	5152
D:	1484.22	420	-1784	15757	-179	366	-6798	-2671	-3136	5152
D:	1485.24	-38	-1751	16182	-179	366	-6798	-2671	-3136	5152
D:	1486.28	-38	-1751	16182	-179	366	-6798	-2671	-3136	5152
D:	1487.34	-38	-1751	16182	-179	366	-6798	-2671	-3136	5152
D:	1488.39	-38	-1751	16182	-299	582	-7243	-2671	-3136	5152
D:	1489.25	-127	-1705	16380	-299	582	-7243	-2671	-3136	5152
D:	1490.24	-127	-1705	16380	-299	582	-7243	-2671	-3136	5152
D:	1491.13	-127	-1705	16380	-299	582	-7243	-2671	-3136	5152
D:	1492.09	-127	-1705	16380	-478	311	-7868	-2671	-3136	5152
D:	1492.93	-293	-1976	16213	-478	311	-7868	-2671	-3136	5152
D:	1493.77	-293	-1976	16213	-478	311	-7868	-2671	-3136	5152
D:	1494.65	-293	-1976	16213	-478	311	-7868	-2671	-3136	5152
D:	1495.54	-293	-1976	16213	-478	311	-7868	-2671	-3136	5152
D:	1496.40	-293	-1976	16213	-317	-22	-7601	-2671	-3136	5152
D:	1497.27	-135	-1565	16320	-317	-22	-7601	-2671	-3136	5152
D:	1498.09	-135	-1565	16320	-317	-22	-7601	-2671	-3136	5152
D:	1498.93	-135	-1565	16320	-317	-22	-7601	-2671	-3136	5152
D:	1500.03	-135	-1565	16320	-192	-593	-7717	-2671	-3136	5152
D:	1500.97	719	-1258	16049	-192	-593	-7717	-2671	-3136	5152
D:	1501.85	719	-1258	16049	-192	-593	-7717	-2602	-3189	5084
D:	1502.70	719	-1258	16049	-192	-593	-7717	-2602	-3189	5084
D:	1503.64	719	-1258	16049	-192	-650	-7779	-2602	-3189	5084
D:	1504.50	1300	-649	15357	-624	-650	-7779	-2602	-3189	5084
D:	1505.53	1300	-649	15357	-624	-650	-7779	-2602	-3189	5084
D:	1506.56	1300	-649	15357	-624	-650	-7779	-2602	-3189	5084
D:	1507.43	1300	-649	15357	-624	-650	-7779	-2602	-3189	5084
D:	1508.34	1300	-649	15357	-1279	57	-7850	-2602	-3189	5084
D:	1509.20	1054	-370	14106	-1279	57	-7850	-2602	-3189	5084
D:	1510.07	1054	-370	14106	-1279	57	-7850	-2602	-3189	5084
D:	1510.93	1054	-370	14106	-1279	57	-7850	-2602	-3189	5084
D:	1511.77	1054	-370	14106	-1279	1264	-7960	-2602	-3189	5084
D:	1512.65	976	-275	13320	-2034	1264	-7960	-2602	-3189	5084
D:	1513.77	976	-275	13320	-2034	1264	-7960	-2602	-3189	5084
D:	1514.77	976	-275	13320	-2034	1264	-7960	-2602	-3189	5084
D:	1515.65	976	-275	13320	-2034	1896	-7726	-2602	-3189	5084
D:	1516.55	667	244	14066	-1385	1896	-7726	-2602	-3189	5084
D:	1517.40	667	244	14066	-1385	1896	-7726	-2602	-3189	5084
D:	1518.53	667	244	14066	-1385	1896	-7726	-2602	-3189	5084
D:	1519.55	667	244	14066	-1385	1896	-7726	-2602	-3189	5084
D:	1520.41	667	244	14066	-705	1622	-7444	-2602	-3189	5084
D:	1521.35	1003	671	13815	-705	1622	-7444	-2602	-3189	5084
D:	1522.24	1003	671	13815	-705	1622	-7444	-2346	-3202	5146
D:	1523.09	1003	671	13815	-705	1622	-7444	-2346	-3202	5146
D:	1523.94	1003	671	13815	-449	1578	-7119	-2346	-3202	5146
D:	1524.77	1963	404	14125	-353	1578	-7119	-2346	-3202	5146
D:	1525.68	1963	404	14125	-353	1578	-7119	-2508	-3202	5146
D:	1526.84	1963	404	14125	-353	1578	-7119	-2508	-3202	5146
D:	1528.03	1963	404	14125	-232	1926	-7034	-2508	-3202	5146
D:	1529.06	1544	32	14486	-232	1926	-7034	-2508	-3202	5146
D:	1529.93	1544	32	14486	-232	1926	-7034	-2508	-3202	5146
D:	1530.82	1544	32	14486	-232	1926	-7034	-2508	-3202	5146
D:	1531.69	1544	32	14486	-232	2884	-7308	-2508	-3202	5146
D:	1532.63	1359	-177	14688	-149	2884	-7308	-2508	-3202	5146
D:	1533.49	1359	-177	14688	-149	2884	-7308	-2508	-3202	5146
D:	1534.36	1359	-177	14688	-149	2884	-7308	-2508	-3202	5146
D:	1535.22	1359	-177	14688	-149	2884	-7308	-2508	-3202	5146
D:	1536.10	1359	-177	14688	112	3415	-7488	-2508	-3202	5146
D:	1536.97	609	350	15742	112	3415	-7488	-2508	-3202	5146
D:	1537.82	609	350	15742	112	3415	-7488	-2508	-3202	5146
D:	1538.75	609	350	15742	112	3415	-7488	-2508	-3202	5146
D:	1539.79	609	350	15742	112	3162	-7307	-2508	-3202	5146
D:	1540.64	770	821	16143	319	3162	-7307	-2508	-3202	5146
D:	1541.54	770	821	16143	319	3162	-7307	-2508	-3202	5146
D:	1542.41	770	821	16143	319	3162	-7307	-2508	-3202	5146
D:	1543.42	770	821	16143	319	2866	-7108	-2508	-3202	5146
D:	1544.69	762	346	16126	274	2866	-7108	-2508	-3202	5146
D:	1545.72	762	346	16126	274	2866	-7108	-2413	-3286	5068
D:	1546.92	762	346	16126	274	2866	-7108	-2413	-3286	5068
D:	1547.85	762	346	16126	274	2548	-6916	-2413	-3286	5068
D:	1548.95	830	98	16180	144	2548	-6916	-2413	-3286	5068
D:	1550.07	830	98	16180	144	2548	-6916	-2413	-3286	5068
D:	1551.03	830	98	16180	144	2548	-6916	-2413	-3286	5068
D:	1551.93	830	98	16180	-112	2711	-7037	-2413	-3286	5068
D:	1552.79	887	-180	16034	-126	2711	-7037	-2413	-3286	5068
D:	1553.65	887	-180	16034	-126	2711	-7037	-2413	-3286	5068
D:	1554.54	887	-180	16034	-126	2711	-7037	-2413	-3286	5068
D:	1555.41	887	-180	16034	-126	2711	-7037	-2413	-3286	5068
D:	1556.28	887	-180	16034	-102	2806	-7289	-2413	-3286	5068
D:	1557.15	625	-335	16029	-102	2806	-7289	-2413	-3286	5068
D:	1558.07	625	-335	16029	-102	2806	-7289	-2413	-3286	5068
D:	1558.97	625	-335	16029	-102	2806	-7289	-2413	-3286	5068
D:	1559.79	625	-335	16029	-102	2782	-7440	-2413	-3286	5068
D:	1560.67	748	-293	15948	-166	2782	-7440	-2413	-3286	5068
D:	1561.54	748	-293	15948	-166	2782	-7440	-2413	-3286	5068
D:	1562.41	748	-293	15948	-166	2782	-7440	-2413	-3286	5068
D:	1563.26	748	-293	15948	-166	2782	-7440	-2413	-3286	5068
D:	1564.10	748	-293	15948	-47	2409	-7154	-2413	-3286	5068
D:	1565.02	593	-111	16112	-47	2409	-7154	-2413	-3286	5068
D:	1566.12	593	-111	16112	-47	2409	-7154	-2296	-3295	5036
D:	1567.32	593	-111	16112	-47	2409	-7154	-2296	-3295	5036
D:	1568.43	716	30	15738	35	2320	-6964	-2296	-3295	5036
D:	1569.67	716	30	15738	35	2320	-6964	-2296	-3295	5036
D:	1570.62	716	30	15738	35	2320	-6964	-2296	-3295	5036
D:	1571.62	716	30	15738	35	2515	-7055	-2296	-3295	5036
D:	1572.49	716	30	15738	-273	2515	-7055	-2296	-3295	5036
D:	1573.35	906	-324	15549	-273	2515	-7055	-2296	-3295	5036
D:	1574.35	906	-324	15549	-273	2515	-7055	-2296	-3295	5036
D:	1575.41	906	-324	15549	-273	2515	-7055	-2296	-3295	5036
D:	1576.35	906	-324	15549	-387	3112	-7433	-2296	-3295	5036
D:	1577.22	386	-403	16292	-387	3112	-7433	-2296	-3295	5036
D:	1578.07	386	-403	16292	-387	3112	-7433	-2296	-3295	5036
D:	1579.01	386	-403	16292	-387	3112	-7433	-2296	-3295	5036
D:	1580.04	386	-403	16292	-372	3284	-7381	-2296	-3295	5036
D:	1580.95	52	-353	17064	-372	3284	-7381	-2296	-3295	5036
D:	1581.82	52	-353	17064	-372	3284	-7381	-2296	-3295	5036
D:	1582.71	52	-353	17064	-372	3284	-7381	-2296	-3295	5036
D:	1583.63	52	-353	17064	-372	2519	-7050	-2296	-3295	5036
D:	1584.50	52	-353	17064	169	2519	-7050	-2296	-3295	5036
D:	1585.37	86	-594	16897	169	2519	-7050	-2296	-3295	5036
D:	1586.40	86	-594	16897	169	2519	-7050	-2192	-3362	5053
D:	1587.50	86	-594	16897	169	2519	-7050	-2192	-3362	5053
D:	1588.35	86	-594	16897	94	1860	-6962	-2192	-3362	5053
D:	1589.30	42	-711	16835	94	1860	-6962	-2192	-3362	5053
D:	1590.20	42	-711	16835	94	1860	-6962	-2192	-3362	5053
D:	1591.07	42	-711	16835	94	1860	-6962	-2192	-3362	5053
D:	1591.93	42	-711	16835	94	1674	-7105	-2192	-3362	5053
D:	1592.79	166	-645	15868	114	1674	-7105	-2192	-3362	5053
D:	1593.68	166	-645	15868	114	1674	-7105	-2192	-3362	5053
D:	1594.65	166	-645	15868	114	1674	-7105	-2192	-3362	5053
D:	1595.51	166	-645	15868	114	1888	-7500	-2192	-3362	5053
D:	1596.58	121	-363	15803	235	1888	-7500	-2192	-3362	5053
D:	1597.49	121	-363	15803	235	1888	-7500	-2192	-3362	5053
D:	1598.35	121	-363	15803	235	1888	-7500	-2192	-3362	5053
D:	1599.23	121	-363	15803	235	1888	-7500	-2192	-3362	5053
D:	1600.09	121	-363	15803	343	1875	-7592	-2192	-3362	5053
D:	1600.96	126	-168	15824	343	1875	-7592	-2192	-3362	5053
D:	1601.82	126	-168	15824	343	1875	-7592	-2192	-3362	5053
D:	1602.68	126	-168	15824	343	1875	-7592	-2192	-3362	5053
D:	1603.63	126	-168	15824	343	1732	-7598	-2192	-3362	5053
D:	1604.49	126	-168	15824	450	1732	-7598	-2192	-3362	5053
D:	1605.33	59	-185	15821	450	1732	-7598	-2192	-3362	5053
D:	1606.59	59	-185	15821	450	1732	-7598	-2090	-3366	4951
D:	1607.62	59	-185	15821	450	1491	-7428	-2090	-3366	4951
D:	1608.80	297	-122	16102	555	1491	-7428	-2090	-3366	4951
D:	1610.15	297	-122	16102	555	1491	-7428	-2090	-3366	4951
D:	1611.29	297	-122	16102	555	1491	-7428	-2090	-3366	4951
D:	1612.29	297	-122	16102	371	1423	-7179	-2090	-3366	4951
D:	1613.15	490	339	15098	371	1423	-7179	-2090	-3366	4951
D:	1614.07	490	339	15098	371	1423	-7179	-2090	-3366	4951
D:	1614.95	490	339	15098	371	1423	-7179	-2090	-3366	4951
D:	1615.80	490	339	15098	371	1798	-7278	-2090	-3366	4951
D:	1616.66	563	505	14444	116	1798	-7278	-2090	-3366	4951
D:	1617.54	563	505	14444	116	1798	-7278	-2090	-3366	4951
D:	1618.41	563	505	14444	116	1798	-7278	-2090	-3366	4951
D:	1619.25	563	505	14444	116	1798	-7278	-2090	-3366	4951
D:	1620.13	563	505	14444	46	2365	-7329	-2090	-3366	4951
D:	1621.09	499	442	14211	46	2365	-7329	-2090	-3366	4951
D:	1621.96	499	442	14211	46	2365	-7329	-2090	-3366	4951
D:	1622.79	499	442	14211	46	2365	-7329	-2090	-3366	4951
D:	1623.64	499	442	14211	46	2940	-7270	-2090	-3366	4951
D:	1624.55	532	580	14691	393	2940	-7270	-2090	-3366	4951
D:	1625.41	532	580	14691	393	2940	-7270	-2090	-3366	4951
D:	1626.39	532	580	14691	393	2940	-7270	-1981	-3445	5118
D:	1627.54	532	580	14691	393	2940	-7270	-1981	-3445	5118
D:	1628.57	562	1017	15295	507	3530	-7340	-1981	-3445	5118
D:	1629.68	562	1017	15295	507	3530	-7340	-1981	-3445	5118
D:	1631.09	562	1017	15295	507	3530	-7340	-1981	-3445	5118
D:	1632.63	540	1165	15848	663	3610	-7317	-1981	-3445	5118
D:	1633.58	540	1165	15848	663	3610	-7317	-1981	-3445	5118
D:	1634.49	540	1165	15848	663	3610	-7317	-1981	-3445	5118
D:	1635.35	540	1165	15848	663	3610	-7317	-1981	-3445	5118
D:	1636.22	540	1165	15848	767	3642	-6969	-1981	-3445	5118
D:	1637.07	487	1453	16540	767	3642	-6969	-1981	-3445	5118
D:	1637.94	487	1453	16540	767	3642	-6969	-1981	-3445	5118
D:	1638.81	487	1453	16540	767	3642	-6969	-1981	-3445	5118
D:	1639.70	487	1453	16540	767	3175	-6484	-1981	-3445	5118
D:	1640.63	808	1758	16872	810	3175	-6484	-1981	-3445	5118
D:	1641.51	808	1758	16872	810	3175	-6484	-1981	-3445	5118
D:	1642.38	808	1758	16872	810	3175	-6484	-1981	-3445	5118
D:	1643.25	808	1758	16872	810	3175	-6484	-1981	-3445	5118
D:	1644.12	808	1758	16872	730	2570	-6223	-1981	-3445	5118
D:	1645.08	731	1663	16579	730	2570	-6223	-1981	-3445	5118
D:	1645.93	731	1663	16579	730	2570	-6223	-1860	-3447	5084
D:	1646.91	731	1663	16579	730	2570	-6223	-1860	-3447	5084
D:	1647.77	731	1663	16579	730	2363	-5720	-1860	-3447	5084
D:	1648.68	474	1274	16420	553	2363	-5720	-1860	-3447	5084
D:	1649.65	474	1274	16420	553	2363	-5720	-1860	-3447	5084
D:	1650.80	474	1274	16420	553	2363	-5720	-1860	-3447	5084
D:	1651.86	474	1274	16420	553	2427	-5666	-1860	-3447	5084
D:	1652.80	321	874	16298	552	2427	-5666	-1860	-3447	5084
D:	1653.67	321	874	16298	552	2427	-5666	-1860	-3447	5084
D:	1654.63	321	874	16298	552	2427	-5666	-1860	-3447	5084
D:	1655.50	321	874	16298	552	2427	-5666	-1860	-3447	5084
D:	1656.37	321	874	16298	612	2442	-5646	-1860	-3447	5084
D:	1657.22	106	836	16586	612	2442	-5646	-1860	-3447	5084
D:	1658.07	106	836	16586	612	2442	-5646	-1860	-3447	5084
D:	1658.93	106	836	16586	612	2442	-5646	-1860	-3447	5084
D:	1659.77	106	836	16586	612	2369	-5721	-1860	-3447	5084
D:	1660.66	372	936	16743	636	2369	-5721	-1860	-3447	5084
D:	1661.54	372	936	16743	636	2369	-5721	-1860	-3447	5084
D:	1662.41	372	936	16743	636	2369	-5721	-1860	-3447	5084
D:	1663.44	372	936	16743	636	2369	-5721	-1860	-3447	5084
D:	1664.52	372	936	16410	563	2322	-5682	-1860	-3447	5084
D:	1665.44	367	1105	16410	563	2322	-5682	-1860	-3447	5084
D:	1666.32	367	1105	16410	563	2322	-5682	-1766	-3525	5021
D:	1667.17	367	1105	16410	563	2322	-5682	-1766	-3525	5021
D:	1668.28	367	1105	16410	446	2228	-5481	-1766	-3525	5021
D:	1669.19	154	650	16754	446	2228	-5481	-1766	-3525	5021
D:	1670.02	154	650	16754	446	2228	-5481	-1766	-3525	5021
D:	1670.90	154	650	16754	446	2228	-5481	-1766	-3525	5021
D:	1671.75	154	650	16754	446	2112	-5219	-1766	-3525	5021
D:	1672.70	-97	439	16786	291	2112	-5219	-1766	-3525	5021
D:	1673.74	-97	439	16786	291	2112	-5219	-1766	-3525	5021
D:	1674.69	-97	439	16786	291	2112	-5219	-1766	-3525	5021
D:	1675.64	-97	439	16786	291	1911	-5138	-1766	-3525	5021
D:	1676.50	-97	439	16968	331	1911	-5138	-1766	-3525	5021
D:	1677.35	-302	343	16968	331	1911	-5138	-1766	-3525	5021
D:	1678.23	-302	343	16968	331	1911	-5138	-1766	-3525	5021
D:	1679.20	-302	343	16968	331	1911	-5138	-1766	-3525	5021
D:	1680.12	-302	343	16968	233	1777	-4984	-1766	-3525	5021
D:	1681.16	-41	271	16619	233	1777	-4984	-1766	-3525	5021
D:	1682.05	-41	271	16619	233	1777	-4984	-1766	-3525	5021
D:	1682.93	-41	271	16619	233	1777	-4984	-1766	-3525	5021
D:	1683.80	-41	271	16619	233	1644	-5006	-1766	-3525	5021
D:	1684.67	-504	88	16629	197	1644	-5006	-1766	-3525	5021
D:	1685.58	-504	88	16629	197	1644	-5006	-1766	-3516	4941
D:	1686.70	-504	88	16629	197	1644	-5006	-1766	-3516	4941
D:	1687.81	-504	88	16629	197	1653	-4903	-1766	-3516	4941
D:	1688.82	-528	-670	17129	-2	1653	-4903	-1766	-3516	4941
D:	1689.70	-528	-670	17129	-2	1653	-4903	-1685	-3516	4941
D:	1690.64	-528	-670	17129	-2	1653	-4903	-1685	-3516	4941
D:	1691.49	-528	-670	17129	-2	1653	-4903	-1685	-3516	4941
D:	1692.38	-528	-670	17129	-276	1811	-4915	-1685	-3516	4941
D:	1693.25	-978	-939	16807	-276	1811	-4915	-1685	-3516	4941
D:	1694.13	-978	-939	16807	-276	1811	-4915	-1685	-3516	4941
D:	1695.06	-978	-939	16807	-276	1811	-4915	-1685	-3516	4941
D:	1695.94	-978	-939	16807	-20	1605	-5146	-1685	-3516	4941
D:	1696.78	-1328	-787	17036	-243	1605	-5146	-1685	-3516	4941
D:	1697.64	-1328	-787	17036	-243	1605	-5146	-1685	-3516	4941
D:	1698.50	-1328	-787	17036	-243	1605	-5146	-1685	-3516	4941
D:	1699.38	-1328	-787	17036	-243	1605	-5146	-1685	-3516	4941
D:	1700.25	-1328	-787	17036	-131	1144	-5269	-1685	-3516	4941
D:	1701.27	-921	-647	16960	-131	1144	-5269	-1685	-3516	4941
D:	1702.33	-921	-647	16960	-131	1144	-5269	-1685	-3516	4941
D:	1703.24	-921	-647	16960	-131	1144	-5269	-1685	-3516	4941
D:	1704.10	-921	-647	16960	-385	875	-5271	-1685	-3516	4941
D:	1704.95	-1288	-733	16622	-385	875	-5271	-1685	-3516	4941
D:	1705.83	-1288	-733	16622	-385	875	-5271	-1685	-3516	4941
D:	1706.67	-1288	-733	16622	-385	875	-5271	-1685	-3516	4941
D:	1707.63	-1288	-733	16622	-385	820	-5295	-1685	-3516	4941
D:	1708.60	-1229	-1092	17201	-748	820	-5295	-1685	-3516	4941
D:	1709.49	-1229	-1092	17201	-748	820	-5295	-1685	-3560	5093
D:	1710.33	-1229	-1092	17201	-748	820	-5295	-1609	-3560	5093
D:	1711.20	-1229	-1092	17201	-748	820	-5295	-1609	-3560	5093
D:	1712.07	-1229	-1092	17201	-992	794	-5644	-1609	-3560	5093
D:	1712.93	-1159	-1184	16589	-992	794	-5644	-1609	-3560	5093
D:	1713.77	-1159	-1184	16589	-992	794	-5644	-1609	-3560	5093
D:	1714.83	-1159	-1184	16589	-992	794	-5644	-1609	-3560	5093
D:	1715.90	-1159	-1184	16589	-992	653	-5966	-1609	-3560	5093
D:	1716.80	-998	-1043	16354	-972	653	-5966	-1609	-3560	5093
D:	1717.67	-998	-1043	16354	-972	653	-5966	-1609	-3560	5093
D:	1718.55	-998	-1043	16354	-972	653	-5966	-1609	-3560	5093
D:	1719.39	-998	-1043	16354	-972	653	-5966	-1609	-3560	5093
D:	1720.27	-998	-1043	16354	-1179	776	-6445	-1609	-3560	5093
D:	1721.12	-772	-417	15414	-1179	776	-6445	-1609	-3560	5093
D:	1722.09	-772	-417	15414	-1179	776	-6445	-1609	-3560	5093
D:	1723.03	-772	-417	15414	-1179	776	-6445	-1609	-3560	5093
D:	1723.95	-772	-417	15414	-1691	1226	-6674	-1609	-3560	5093
D:	1724.79	-719	-187	14851	-1590	1226	-6674	-1609	-3560	5093
D:	1725.75	-719	-187	14851	-1590	1226	-6674	-1609	-3560	5093
D:	1726.80	-719	-187	14851	-1590	1226	-6674	-1609	-3560	5093
D:	1727.95	-719	-187	14851	-1277	1174	-6538	-1609	-3560	5093
D:	1729.16	-460	718	14194	-1277	1174	-6538	-1609	-3560	5093
D:	1730.38	-460	718	14194	-1277	1174	-6538	-1514	-3537	5276
D:	1731.24	-460	718	14194	-1277	1174	-6538	-1514	-3537	5276
D:	1732.11	-460	718	14194	-1083	1253	-6145	-1514	-3537	5276
D:	1733.05	-277	1122	13665	-1083	1253	-6145	-1514	-3537	5276
D:	1733.96	-277	1122	13665	-1083	1253	-6145	-1514	-3537	5276
D:	1734.83	-277	1122	13665	-1083	1253	-6145	-1514	-3537	5276
D:	1735.70	-277	1122	13665	-1083	1377	-5564	-1514	-3537	5276
D:	1736.64	-215	1207	13734	-698	1377	-5564	-1514	-3537	5276
D:	1737.50	-215	1207	13734	-698	1377	-5564	-1514	-3537	5276
D:	1738.41	-215	1207	13734	-698	1377	-5564	-1514	-3537	5276
D:	1739.27	-215	1207	13734	-698	1377	-5564	-1514	-3537	5276
D:	1740.14	-215	1207	13734	-235	1694	-5145	-1514	-3537	5276
D:	1741.03	-100	1030	13503	-235	1694	-5145	-1514	-3537	5276
D:	1742.12	-100	1030	13503	-235	1694	-5145	-1514	-3537	5276
D:	1743.19	-100	1030	13503	-235	1694	-5145	-1514	-3537	5276
D:	1744.10	-100	1030	13503	58	1993	-4984	-1514	-3537	5276
D:	1744.94	-124	1178	14848	58	1993	-4984	-1514	-3537	5276
D:	1745.77	-124	1178	14848	58	1993	-4984	-1514	-3537	5276
D:	1746.64	-124	1178	14848	58	1993	-4984	-1514	-3537	5276
D:	1747.58	-124	1178	14848	58	2121	-4796	-1514	-3537	5276
D:	1748.53	-124	1178	14634	330	2121	-4796	-1514	-3537	5276
D:	1749.40	104	1234	14634	330	2121	-4796	-1514	-3537	5276
D:	1750.27	104	1234	14634	330	2121	-4796	-1415	-3584	5117
D:	1751.12	104	1234	14634	330	2121	-4796	-1415	-3584	5117
D:	1752.07	104	1234	14634	638	1997	-4542	-1415	-3584	5117
D:	1752.96	187	1163	15290	638	1997	-4542	-1415	-3584	5117
D:	1754.07	187	1163	15290	638	1997	-4542	-1415	-3584	5117
D:	1754.99	187	1163	15290	638	1997	-4542	-1415	-3584	5117
D:	1755.85	187	1163	15290	638	2032	-4355	-1415	-3584	5117
D:	1756.72	254	1107	15914	835	2032	-4355	-1415	-3584	5117
D:	1757.63	254	1107	15914	835	2032	-4355	-1415	-3584	5117
D:	1758.50	254	1107	15914	835	2032	-4355	-1415	-3584	5117
D:	1759.37	254	1107	15914	835	2032	-4355	-1415	-3584	5117
D:	1760.22	254	1107	15914	716	2216	-4202	-1415	-3584	5117
D:	1761.09	-65	1058	16126	716	2216	-4202	-1415	-3584	5117
D:	1761.93	-65	1058	16126	716	2216	-4202	-1415	-3584	5117
D:	1762.80	-65	1058	16126	716	2216	-4202	-1415	-3584	5117
D:	1763.73	-65	1058	16126	716	2142	-3931	-1415	-3584	5117
D:	1764.81	-220	1162	16719	672	2142	-3931	-1415	-3584	5117
D:	1765.72	-220	1162	16719	672	2142	-3931	-1415	-3584	5117
D:	1766.59	-220	1162	16719	672	2142	-3931	-1415	-3584	5117
D:	1767.51	-220	1162	16719	672	2142	-3931	-1415	-3584	5117
D:	1768.40	-220	1162	16719	598	2043	-3403	-1415	-3584	5117
D:	1769.30	-136	744	16949	598	2043	-3403	-1415	-3584	5117
D:	1770.15	-136	744	16949	598	2043	-3403	-1333	-3580	5139
D:	1771.10	-136	744	16949	598	2043	-3403	-1333	-3580	5139
D:	1771.95	-136	744	16949	598	2010	-3507	-1333	-3580	5139
D:	1772.82	-451	833	17124	514	2010	-3507	-1333	-3580	5139
D:	1773.68	-451	833	17124	514	2010	-3507	-1333	-3580	5139
D:	1774.77	-451	833	17124	514	2010	-3507	-1333	-3580	5139
D:	1775.89	-451	833	17124	258	1808	-3730	-1333	-3580	5139
D:	1776.80	-737	555	17571	272	1808	-3730	-1333	-3580	5139
D:	1777.64	-737	555	17571	272	1808	-3730	-1333	-3580	5139
D:	1778.51	-737	555	17571	272	1808	-3730	-1333	-3580	5139
D:	1779.35	-737	555	17571	272	1808	-3730	-1333	-3580	5139
D:	1780.38	-737	555	17091	-45	1446	-3984	-1333	-3580	5139
D:	1781.53	-561	377	17091	-45	1446	-3984	-1333	-3580	5139
D:	1782.49	-561	377	17091	-45	1446	-3984	-1333	-3580	5139
D:	1783.36	-561	377	17091	-45	1446	-3984	-1333	-3580	5139
D:	1784.36	-561	377	17091	127	1010	-3731	-1333	-3580	5139
D:	1785.41	-389	579	17246	127	1010	-3731	-1333	-3580	5139
D:	1786.38	-389	579	17246	127	1010	-3731	-1333	-3580	5139
D:	1787.28	-389	579	17246	127	1010	-3731	-1333	-3580	5139
D:	1788.18	-389	579	17246	244	921	-3652	-1333	-3580	5139
D:	1789.05	-208	1107	17717	244	921	-3652	-1333	-3580	5139
D:	1789.95	-208	1107	17717	244	921	-3652	-1282	-3609	5149
D:	1790.82	-208	1107	17717	244	921	-3652	-1282	-3609	5149
D:	1791.67	-208	1107	17717	244	542	-3651	-1282	-3609	5149
D:	1792.54	-254	1107	17723	-125	542	-3651	-1282	-3609	5149
D:	1793.41	-254	1107	17723	-125	542	-3651	-1282	-3609	5149
D:	1794.32	-254	1107	17723	-125	542	-3651	-1282	-3609	5149
D:	1795.37	-254	1107	17723	-125	542	-3651	-1282	-3609	5149
D:	1796.38	-254	1107	17723	-234	162	-3390	-1282	-3609	5149
D:	1797.25	-307	906	17562	-234	162	-3390	-1282	-3609	5149
D:	1798.10	-307	906	17562	-234	162	-3390	-1282	-3609	5149
D:	1798.96	-307	906	17562	-234	162	-3390	-1282	-3609	5149
D:	1799.82	-307	906	17562	-234	-3	-3169	-1282	-3609	5149
D:	1800.69	-552	665	17072	-149	-3	-3169	-1282	-3609	5149
D:	1801.63	-552	665	17072	-149	-3	-3169	-1282	-3609	5149
D:	1802.54	-552	665	17072	-149	-3	-3169	-1282	-3609	5149
D:	1803.40	-552	665	17072	-149	-3	-3169	-1282	-3609	5149
D:	1804.25	-552	665	17072	-59	-341	-3097	-1282	-3609	5149
D:	1805.09	-727	718	17259	-59	-341	-3097	-1282	-3609	5149
D:	1806.15	-727	718	17259	-59	-341	-3097	-1282	-3609	5149
D:	1807.02	-727	718	17259	-59	-341	-3097	-1282	-3609	5149
D:	1808.25	-727	718	17259	18	-628	-3144	-1282	-3609	5149
D:	1809.53	-285	838	16986	18	-628	-3144	-1228	-3595	4929
D:	1810.60	-285	838	16986	18	-628	-3144	-1228	-3595	4929
D:	1811.51	-285	838	16986	18	-628	-3144	-1228	-3595	4929
D:	1812.33	-285	838	16986	-60	-864	-3066	-1228	-3595	4929
D:	1813.17	-688	1044	16603	-60	-864	-3066	-1228	-3595	4929
D:	1814.08	-688	1044	16603	-60	-864	-3066	-1228	-3595	4929
D:	1815.11	-688	1044	16603	-60	-864	-3066	-1228	-3595	4929
D:	1816.15	-688	1044	16603	-341	-1148	-2981	-1228	-3595	4929
D:	1817.05	-815	648	16213	-341	-1148	-2981	-1228	-3595	4929
D:	1817.93	-815	648	16213	-341	-1148	-2981	-1228	-3595	4929
D:	1818.77	-815	648	16213	-341	-1148	-2981	-1228	-3595	4929
D:	1819.65	-815	648	16213	-341	-1360	-2908	-1228	-3595	4929
D:	1820.49	-815	648	16213	-344	-1360	-2908	-1228	-3595	4929
D:	1821.36	-452	479	15238	-344	-1360	-2908	-1228	-3595	4929
D:	1822.22	-452	479	15238	-344	-1360	-2908	-1228	-3595	4929
D:	1823.09	-452	479	15238	-344	-1360	-2908	-1228	-3595	4929
D:	1823.96	-452	479	15238	-88	-1446	-2639	-1228	-3595	4929
D:	1824.82	-525	604	15332	-193	-1446	-2639	-1228	-3595	4929
D:	1825.64	-525	604	15332	-193	-1446	-2639	-1228	-3595	4929
D:	1826.77	-525	604	15332	-193	-1446	-2639	-1228	-3595	4929
D:	1827.91	-525	604	15332	-193	-1026	-2547	-1228	-3595	4929
D:	1828.93	-800	330	14598	-121	-1026	-2547	-1228	-3595	4929
D:	1829.78	-800	330	14598	-121	-1026	-2547	-1222	-3626	5065
D:	1830.70	-800	330	14598	-121	-1026	-2547	-1222	-3626	5065
D:	1831.64	-800	330	14598	-121	-938	-2544	-1222	-3626	5065
D:	1832.54	-955	140	15185	-199	-938	-2544	-1222	-3626	5065
D:	1833.39	-955	140	15185	-199	-938	-2544	-1222	-3626	5065
D:	1834.23	-955	140	15185	-199	-938	-2544	-1222	-3626	5065
D:	1835.12	-955	140	15185	-199	-938	-2544	-1222	-3626	5065
D:	1836.09	-955	140	15185	-131	-840	-2591	-1222	-3626	5065
D:	1837.22	-734	-167	14844	-131	-840	-2591	-1222	-3626	5065
D:	1838.22	-734	-167	14844	-131	-840	-2591	-1222	-3626	5065
D:	1839.08	-734	-167	14844	-131	-840	-2591	-1222	-3626	5065
D:	1839.93	-734	-167	14844	125	-883	-2720	-1222	-3626	5065
D:	1840.79	-654	-238	14647	86	-883	-2720	-1222	-3626	5065
D:	1841.67	-654	-238	14647	86	-883	-2720	-1222	-3626	5065
D:	1842.54	-654	-238	14647	86	-883	-2720	-1222	-3626	5065
D:	1843.38	-654	-238	14647	86	-883	-2720	-1222	-3626	5065
D:	1844.30	-654	-238	14647	275	-419	-2773	-1222	-3626	5065
D:	1845.29	-1153	-268	15571	275	-419	-2773	-1222	-3626	5065
D:	1846.14	-1153	-268	15571	275	-419	-2773	-1222	-3626	5065
D:	1847.08	-1153	-268	15571	275	-419	-2773	-1222	-3626	5065
D:	1848.02	-1153	-268	15571	270	-386	-2986	-1222	-3626	5065
D:	1848.96	-1146	-377	15642	270	-386	-2986	-1222	-3626	5065
D:	1849.82	-1146	-377	15642	270	-386	-2986	-1222	-3626	5154
D:	1850.69	-1146	-377	15642	270	-386	-2986	-1222	-3626	5154
D:	1851.66	-1146	-377	15642	270	-747	-3121	-1222	-3626	5154
D:	1852.50	-1146	-377	15642	264	-747	-3121	-1222	-3626	5154
D:	1853.36	-1245	-497	15928	264	-747	-3121	-1222	-3626	5154
D:	1854.22	-1245	-497	15928	264	-747	-3121	-1187	-3618	5154
D:	1855.10	-1245	-497	15928	264	-747	-3121	-1187	-3618	5154
D:	1855.96	-1245	-497	15928	8	-919	-3249	-1187	-3618	5154
D:	1856.83	-1078	-604	15681	178	-919	-3249	-1187	-3618	5154
D:	1857.81	-1078	-604	15681	178	-919	-3249	-1187	-3618	5154
D:	1858.70	-1078	-604	15681	178	-919	-3249	-1187	-3618	5154
D:	1859.64	-1078	-604	15681	178	-791	-3443	-1187	-3618	5154
D:	1860.51	-1078	-604	15681	362	-791	-3443	-1187	-3618	5154
D:	1861.37	-1056	-547	15733	362	-791	-3443	-1187	-3618	5154
D:	1862.20	-1056	-547	15733	362	-791	-3443	-1187	-3618	5154
D:	1863.20	-1056	-547	15733	362	-791	-3443	-1187	-3618	5154
D:	1864.25	-1056	-547	15733	330	-813	-3547	-1187	-3618	5154
D:	1865.23	-971	-311	16024	330	-813	-3547	-1187	-3618	5154
D:	1866.44	-971	-311	16024	330	-813	-3547	-1187	-3618	5154
D:	1867.39	-971	-311	16024	330	-813	-3547	-1187	-3618	5154
D:	1868.35	-971	-311	16024	239	-918	-3625	-1187	-3618	5154
D:	1869.35	-953	-366	15942	239	-918	-3625	-1187	-3618	5154
D:	1870.27	-953	-366	15942	239	-918	-3625	-1187	-3618	5154
D:	1871.12	-953	-366	15942	239	-918	-3625	-1187	-3618	5154
D:	1872.02	-953	-366	15942	279	-1102	-3677	-1187	-3618	5154
D:	1872.90	-909	-355	15697	279	-1102	-3677	-1187	-3618	5154
D:	1873.77	-909	-355	15697	279	-1102	-3677	-1168	-3644	5056
D:	1874.64	-909	-355	15697	279	-1102	-3677	-1168	-3644	5056
D:	1875.54	-909	-355	15697	279	-1102	-3677	-1168	-3644	5056
D:	1876.41	-909	-355	15697	135	-1360	-3879	-1168	-3644	5056
D:	1877.27	-870	-312	15804	135	-1360	-3879	-1168	-3644	5056
