Syntax version=4
Thu Mar 15 12:30:14 2018
Starting process (2648443 clocks per sec)

LogRawData=false
VarHeader=1
D:		imu_acc_x	imu_acc_y	imu_acc_z	imu_gyro_x	imu_gyro_y	imu_gyro_z	imu_mag_x	imu_mag_y	imu_mag_z
D:	time(ms)	(0x20000230,3)	(0x20000232,3)	(0x20000234,3)	(0x2000022a,3)	(0x2000022c,3)	(0x2000022e,3)	(0x20000236,3)	(0x20000238,3)	(0x2000023a,3)
D:	0.06	-1824	541	16100	383	9	-643	-3460	-1703	5615
D:	1.07	-1824	541	16100	383	9	-643	-3460	-1703	5615
D:	1.97	-1824	541	16100	383	9	-643	-3460	-1703	5615
D:	2.96	-2104	581	16289	616	-60	-698	-3460	-1703	5615
D:	4.12	-2104	581	16289	616	-60	-698	-3459	-1735	5535
D:	5.06	-2104	581	16289	616	-60	-698	-3459	-1735	5535
D:	5.93	-2104	581	16289	616	-60	-698	-3459	-1735	5535
D:	6.89	-2104	581	16289	619	-95	-705	-3459	-1735	5535
D:	7.80	-2142	558	16220	619	-95	-705	-3459	-1735	5535
D:	8.72	-2142	558	16220	619	-95	-705	-3459	-1735	5535
D:	9.67	-2142	558	16220	619	-95	-705	-3459	-1735	5535
D:	10.77	-2142	558	16220	653	-145	-647	-3459	-1735	5535
D:	11.72	-2046	294	15676	653	-145	-647	-3459	-1735	5535
D:	12.61	-2046	294	15676	653	-145	-647	-3459	-1735	5535
D:	13.48	-2046	294	15676	653	-145	-647	-3459	-1735	5535
D:	14.36	-2046	294	15676	397	-114	-642	-3459	-1735	5535
D:	15.25	-2133	446	16058	366	-114	-642	-3459	-1735	5535
D:	16.11	-2133	446	16058	366	-114	-642	-3459	-1735	5535
D:	16.99	-2133	446	16058	366	-114	-642	-3459	-1735	5535
D:	17.86	-2133	446	16058	366	-114	-642	-3459	-1735	5535
D:	18.74	-2133	446	16058	330	-121	-626	-3459	-1735	5535
D:	19.68	-1812	396	16068	330	-121	-626	-3459	-1735	5535
D:	20.54	-1812	396	16068	330	-121	-626	-3459	-1735	5535
D:	21.42	-1812	396	16068	330	-121	-626	-3459	-1735	5535
D:	22.29	-1812	396	16068	330	-82	-559	-3459	-1735	5535
D:	23.14	-1923	389	16094	152	-82	-559	-3459	-1735	5535
D:	24.11	-1923	389	16094	152	-82	-559	-3460	-1744	5587
D:	25.02	-1923	389	16094	152	-82	-559	-3460	-1744	5587
D:	25.89	-1923	389	16094	152	-82	-559	-3460	-1744	5587
D:	26.76	-1923	389	16094	59	-143	-610	-3460	-1744	5587
D:	27.63	-1999	335	16085	59	-143	-610	-3460	-1744	5587
D:	28.66	-1999	335	16085	59	-143	-610	-3460	-1744	5587
D:	29.71	-1999	335	16085	59	-143	-610	-3460	-1744	5587
D:	30.68	-1999	335	16085	102	-203	-638	-3460	-1744	5587
D:	31.53	-1733	407	15522	102	-203	-638	-3460	-1744	5587
D:	32.58	-1733	407	15522	102	-203	-638	-3460	-1744	5587
D:	33.57	-1733	407	15522	102	-203	-638	-3460	-1744	5587
D:	34.56	-1733	407	15522	136	-117	-647	-3460	-1744	5587
D:	35.59	-1908	614	15710	136	-117	-647	-3460	-1744	5587
D:	36.71	-1908	614	15710	136	-117	-647	-3460	-1744	5587
D:	37.64	-1908	614	15710	136	-117	-647	-3460	-1744	5587
D:	38.55	-1908	614	15710	146	-168	-523	-3460	-1744	5587
D:	39.40	-1812	580	15691	146	-168	-523	-3460	-1744	5587
D:	40.24	-1812	580	15691	146	-168	-523	-3460	-1744	5587
D:	41.11	-1812	580	15691	146	-168	-523	-3460	-1744	5587
D:	41.99	-1812	580	15691	146	-76	-572	-3460	-1744	5587
D:	42.84	-1812	580	15691	-26	-76	-572	-3460	-1744	5587
D:	43.71	-1664	756	15613	-26	-76	-572	-3460	-1744	5587
D:	44.79	-1664	756	15613	-26	-76	-572	-3467	-1764	5655
D:	45.71	-1664	756	15613	-26	-76	-572	-3467	-1764	5655
D:	46.55	-1664	756	15613	-90	-65	-547	-3467	-1764	5655
D:	47.41	-1754	878	16083	-90	-65	-547	-3467	-1764	5655
D:	48.26	-1754	878	16083	-90	-65	-547	-3467	-1764	5655
D:	49.29	-1754	878	16083	-90	-65	-547	-3467	-1764	5655
D:	50.34	-1754	878	16083	-90	-142	-472	-3467	-1764	5655
D:	51.21	-1748	857	15691	-118	-142	-472	-3467	-1764	5655
D:	52.17	-1748	857	15691	-118	-142	-472	-3467	-1764	5655
D:	53.31	-1748	857	15691	-118	-142	-472	-3467	-1764	5655
D:	54.47	-1748	857	15691	118	-1	-490	-3467	-1764	5655
D:	55.54	-1810	1091	16022	118	-1	-490	-3467	-1764	5655
D:	56.41	-1810	1091	16022	118	-1	-490	-3467	-1764	5655
D:	57.27	-1810	1091	16022	118	-1	-490	-3467	-1764	5655
D:	58.11	-1810	1091	16022	118	-29	-416	-3467	-1764	5655
D:	58.99	-1741	1019	15595	382	-29	-416	-3467	-1764	5655
D:	59.86	-1741	1019	15595	382	-29	-416	-3467	-1764	5655
D:	60.71	-1741	1019	15595	382	-29	-416	-3467	-1764	5655
D:	61.64	-1741	1019	15595	382	-29	-416	-3467	-1764	5655
D:	62.82	-1741	1019	15595	617	-49	-500	-3467	-1764	5655
D:	63.71	-1721	1162	15530	617	-49	-500	-3467	-1764	5655
D:	64.68	-1721	1162	15530	617	-49	-500	-3467	-1758	5640
D:	65.54	-1721	1162	15530	617	-49	-500	-3467	-1758	5640
D:	66.43	-1721	1162	15530	726	69	-360	-3467	-1758	5640
D:	67.29	-1594	1013	15996	726	69	-360	-3467	-1758	5640
D:	68.16	-1594	1013	15996	726	69	-360	-3482	-1758	5640
D:	69.06	-1594	1013	15996	726	69	-360	-3482	-1758	5640
D:	71.06	-1727	1011	15925	705	26	-390	-3482	-1758	5640
D:	72.06	-1727	1011	15925	705	26	-390	-3482	-1758	5640
D:	73.25	-1727	1011	15925	705	26	-390	-3482	-1758	5640
D:	74.30	-1727	1011	15925	705	0	-349	-3482	-1758	5640
D:	75.17	-1965	998	16043	687	0	-349	-3482	-1758	5640
D:	76.06	-1965	998	16043	687	0	-349	-3482	-1758	5640
D:	77.00	-1965	998	16043	687	0	-349	-3482	-1758	5640
D:	77.88	-1965	998	16043	687	0	-349	-3482	-1758	5640
D:	78.76	-1965	998	16043	673	235	-337	-3482	-1758	5640
D:	79.64	-1936	854	16132	673	235	-337	-3482	-1758	5640
D:	80.53	-1936	854	16132	673	235	-337	-3482	-1758	5640
D:	81.37	-1936	854	16132	673	235	-337	-3482	-1758	5640
D:	82.22	-1936	854	16132	673	30	-335	-3482	-1758	5640
D:	83.10	-1964	839	16144	573	30	-335	-3482	-1758	5640
D:	84.00	-1964	839	16144	573	30	-335	-3482	-1758	5640
D:	84.86	-1964	839	16144	573	30	-335	-3482	-1758	5640
D:	85.71	-1964	839	16144	573	30	-335	-3482	-1758	5640
D:	86.55	-1964	839	16144	290	117	-280	-3482	-1758	5640
D:	87.39	-2284	806	16268	290	117	-280	-3482	-1758	5640
D:	88.26	-2284	806	16268	290	117	-280	-3475	-1788	5498
D:	89.13	-2284	806	16268	290	117	-280	-3475	-1788	5498
D:	89.96	-2284	806	16268	290	117	-280	-3475	-1788	5498
D:	90.92	-1554	680	16198	585	280	-111	-3475	-1788	5498
D:	91.88	-1554	680	16198	585	280	-111	-3475	-1788	5498
D:	92.97	-1554	680	16198	585	280	-111	-3475	-1788	5498
D:	93.83	-1554	680	16198	585	280	-111	-3475	-1788	5498
D:	94.66	-1554	680	16198	433	55	-214	-3475	-1788	5498
D:	95.54	-2086	654	16010	433	55	-214	-3475	-1788	5498
D:	96.39	-2086	654	16010	433	55	-214	-3475	-1788	5498
D:	97.24	-2086	654	16010	433	55	-214	-3475	-1788	5498
D:	98.12	-2086	654	16010	433	66	-257	-3475	-1788	5498
D:	98.99	-2077	488	16344	363	66	-257	-3475	-1788	5498
D:	99.97	-2077	488	16344	363	66	-257	-3475	-1788	5498
D:	100.97	-2077	488	16344	363	66	-257	-3475	-1788	5498
D:	101.86	-2077	488	16344	363	66	-257	-3475	-1788	5498
D:	102.71	-2077	488	16344	236	-29	-309	-3475	-1788	5498
D:	103.59	-2051	593	16142	236	-29	-309	-3475	-1788	5498
D:	104.43	-2051	593	16142	236	-29	-309	-3475	-1788	5498
D:	105.28	-2051	593	16142	236	-29	-309	-3475	-1788	5498
D:	106.19	-2051	593	16142	236	24	-319	-3475	-1788	5498
D:	107.17	-2142	742	16150	328	24	-319	-3475	-1788	5498
D:	108.29	-2142	742	16150	328	24	-319	-3466	-1760	5565
D:	109.27	-2142	742	16150	328	24	-319	-3466	-1760	5565
D:	110.12	-2142	742	16150	328	-21	-221	-3466	-1760	5565
D:	111.01	-1891	712	16104	207	-21	-221	-3466	-1760	5565
D:	111.92	-1891	712	16104	207	-21	-221	-3466	-1760	5565
D:	112.95	-1891	712	16104	207	-21	-221	-3466	-1760	5565
D:	114.01	-1891	712	16104	207	-117	-243	-3466	-1760	5565
D:	115.04	-1937	833	16104	73	-117	-243	-3466	-1760	5565
D:	115.99	-1937	833	16104	73	-117	-243	-3466	-1760	5565
D:	116.85	-1937	833	16104	73	-117	-243	-3466	-1760	5565
D:	117.94	-1937	833	16104	73	-218	-186	-3466	-1760	5565
D:	118.92	-1937	833	16104	-102	-218	-186	-3466	-1760	5565
D:	119.76	-1995	977	16164	-102	-218	-186	-3466	-1760	5565
D:	120.79	-1995	977	16164	-102	-218	-186	-3466	-1760	5565
D:	121.84	-1995	977	16164	-102	-218	-186	-3466	-1760	5565
D:	122.86	-1877	981	15670	-50	-200	-313	-3466	-1760	5565
D:	123.94	-1877	981	15670	-50	-200	-313	-3466	-1760	5565
D:	124.88	-1877	981	15670	-50	-200	-313	-3466	-1760	5565
D:	125.76	-1877	981	15670	-50	-200	-313	-3466	-1760	5565
D:	126.76	-1877	981	15670	115	-152	-303	-3466	-1760	5565
D:	127.72	-1931	1006	16000	115	-152	-303	-3466	-1760	5565
D:	128.76	-1931	1006	16000	115	-152	-303	-3470	-1797	5504
D:	129.64	-1931	1006	16000	115	-152	-303	-3470	-1797	5504
D:	130.55	-1931	1006	16000	242	-149	-308	-3470	-1797	5504
D:	131.45	-1936	1011	16064	242	-149	-308	-3470	-1797	5504
D:	132.48	-1936	1011	16064	242	-149	-308	-3470	-1797	5504
D:	133.44	-1936	1011	16064	242	-149	-308	-3470	-1797	5504
D:	134.31	-1936	1011	16064	498	-174	-507	-3470	-1797	5504
D:	135.19	-2006	964	15502	342	-174	-507	-3470	-1797	5504
D:	136.09	-2006	964	15502	342	-174	-507	-3470	-1797	5504
D:	136.97	-2006	964	15502	342	-174	-507	-3470	-1797	5504
D:	138.05	-2006	964	15502	342	-58	-272	-3470	-1797	5504
D:	139.19	-2014	763	15818	421	-58	-272	-3470	-1797	5504
D:	140.15	-2014	763	15818	421	-58	-272	-3470	-1797	5504
D:	141.14	-2014	763	15818	421	-58	-272	-3470	-1797	5504
D:	142.01	-2014	763	15818	421	-42	-314	-3470	-1797	5504
D:	143.02	-1946	679	15500	506	-42	-314	-3470	-1797	5504
D:	144.01	-1946	679	15500	506	-42	-314	-3470	-1797	5504
D:	144.86	-1946	679	15500	506	-42	-314	-3470	-1797	5504
D:	145.87	-1946	679	15500	506	-42	-314	-3470	-1797	5504
D:	146.86	-1946	679	15500	620	-110	-400	-3470	-1797	5504
D:	147.73	-2028	680	15960	620	-110	-400	-3470	-1797	5504
D:	148.68	-2028	680	15960	620	-110	-400	-3472	-1789	5558
D:	149.60	-2028	680	15960	620	-110	-400	-3472	-1789	5558
D:	150.48	-2028	680	15960	799	17	-378	-3472	-1789	5558
D:	151.55	-1863	680	15865	799	17	-378	-3472	-1789	5558
D:	152.62	-1863	680	15865	799	17	-378	-3472	-1789	5558
D:	153.75	-1863	680	15865	799	17	-378	-3472	-1789	5558
D:	154.73	-1863	680	15865	850	48	-445	-3472	-1789	5558
D:	155.66	-1818	639	15186	850	48	-445	-3472	-1789	5558
D:	156.57	-1818	639	15186	850	48	-445	-3472	-1789	5558
D:	157.44	-1818	639	15186	850	48	-445	-3472	-1789	5558
D:	158.28	-1818	639	15186	850	-18	-352	-3472	-1789	5558
D:	159.18	-1950	707	15751	860	-18	-352	-3472	-1789	5558
D:	160.12	-1950	707	15751	860	-18	-352	-3472	-1789	5558
D:	161.00	-1950	707	15751	860	-18	-352	-3472	-1789	5558
D:	161.84	-1950	707	15751	860	-18	-352	-3472	-1789	5558
D:	162.71	-1950	707	15751	869	133	-406	-3472	-1789	5558
D:	163.59	-2187	601	15330	869	133	-406	-3472	-1789	5558
D:	164.45	-2187	601	15330	869	133	-406	-3472	-1789	5558
D:	165.32	-2187	601	15330	869	133	-406	-3472	-1789	5558
D:	166.16	-2187	601	15330	869	113	-255	-3472	-1789	5558
D:	167.11	-1994	832	15854	571	113	-255	-3472	-1789	5558
D:	168.06	-1994	832	15854	571	113	-255	-3466	-1813	5546
D:	169.08	-1994	832	15854	571	113	-255	-3466	-1813	5546
D:	170.21	-1994	832	15854	571	144	-335	-3466	-1813	5546
D:	171.32	-1858	890	15816	633	144	-335	-3466	-1813	5546
D:	172.22	-1858	890	15816	633	144	-335	-3466	-1813	5546
D:	173.28	-1858	890	15816	633	144	-335	-3466	-1813	5546
D:	174.19	-1858	890	15816	633	206	-322	-3466	-1813	5546
D:	175.09	-1854	870	15644	271	206	-322	-3466	-1813	5546
D:	175.99	-1854	870	15644	271	206	-322	-3466	-1813	5546
D:	176.86	-1854	870	15644	271	206	-322	-3466	-1813	5546
D:	177.72	-1854	870	15644	271	206	-322	-3466	-1813	5546
D:	178.75	-1854	870	15644	-10	125	-280	-3466	-1813	5546
D:	179.68	-1984	921	15979	-10	125	-280	-3466	-1813	5546
D:	180.54	-1984	921	15979	-10	125	-280	-3466	-1813	5546
D:	181.41	-1984	921	15979	-10	125	-280	-3466	-1813	5546
D:	182.26	-1984	921	15979	-10	166	-161	-3466	-1813	5546
D:	183.14	-1926	1013	15845	-165	166	-161	-3466	-1813	5546
D:	184.00	-1926	1013	15845	-165	166	-161	-3466	-1813	5546
D:	184.86	-1926	1013	15845	-165	166	-161	-3466	-1813	5546
D:	185.73	-1926	1013	15845	-165	166	-161	-3466	-1813	5546
D:	186.67	-1926	1013	15845	-40	82	-151	-3466	-1813	5546
D:	187.54	-1889	1014	15889	-40	82	-151	-3466	-1813	5546
D:	188.36	-1889	1014	15889	-40	82	-151	-3439	-1803	5593
D:	189.23	-1889	1014	15889	-40	82	-151	-3439	-1803	5593
D:	190.07	-1889	1014	15889	-40	119	-88	-3439	-1803	5593
D:	191.05	-2038	894	15872	31	119	-88	-3439	-1803	5593
D:	192.02	-2038	894	15872	31	119	-88	-3439	-1803	5593
D:	193.06	-2038	894	15872	31	119	-88	-3439	-1803	5593
D:	194.05	-2038	894	15872	31	86	-106	-3439	-1803	5593
D:	195.08	-1753	991	15648	161	86	-106	-3439	-1803	5593
D:	196.01	-1753	991	15648	161	86	-106	-3439	-1803	5593
D:	196.87	-1753	991	15648	161	86	-106	-3439	-1803	5593
D:	197.71	-1753	991	15648	161	86	-106	-3439	-1803	5593
D:	198.55	-1753	991	15648	2	34	-172	-3439	-1803	5593
D:	199.45	-1930	890	16086	2	34	-172	-3439	-1803	5593
D:	200.57	-1930	890	16086	2	34	-172	-3439	-1803	5593
D:	201.56	-1930	890	16086	2	34	-172	-3439	-1803	5593
D:	202.43	-1930	890	16086	-24	65	-189	-3439	-1803	5593
D:	203.29	-1897	768	16128	-24	65	-189	-3439	-1803	5593
D:	204.16	-1897	768	16128	-24	65	-189	-3439	-1803	5593
D:	205.13	-1897	768	16128	-24	65	-189	-3439	-1803	5593
D:	206.00	-1897	768	16128	-24	65	-189	-3439	-1803	5593
D:	206.86	-1897	768	16128	-39	177	-67	-3439	-1803	5593
D:	207.78	-1948	813	15964	-39	177	-67	-3439	-1803	5593
D:	208.63	-1948	813	15964	-39	177	-67	-3445	-1830	5634
D:	209.53	-1948	813	15964	-39	177	-67	-3445	-1830	5634
D:	210.60	-1948	813	15964	72	16	-92	-3445	-1830	5634
D:	211.83	-1951	734	16160	72	16	-92	-3445	-1830	5634
D:	212.90	-1951	734	16160	72	16	-92	-3445	-1830	5634
D:	214.08	-1951	734	16160	72	-5	12	-3445	-1830	5634
D:	215.16	-2001	667	16221	203	-5	12	-3445	-1830	5634
D:	216.31	-2001	667	16221	203	-5	12	-3445	-1830	5634
D:	217.19	-2001	667	16221	203	-5	12	-3445	-1830	5634
D:	218.12	-2001	667	16221	203	-54	-36	-3445	-1830	5634
D:	218.97	-2001	667	16365	61	-54	-36	-3445	-1830	5634
D:	219.83	-2057	770	16365	61	-54	-36	-3445	-1830	5634
D:	220.69	-2057	770	16365	61	-54	-36	-3445	-1830	5634
D:	221.56	-2057	770	16365	61	-54	-36	-3445	-1830	5634
D:	222.42	-2057	770	16365	-127	-109	-99	-3445	-1830	5634
D:	223.29	-2007	701	16224	-127	-109	-99	-3445	-1830	5634
D:	224.16	-2007	701	16224	-127	-109	-99	-3445	-1830	5634
D:	225.18	-2007	701	16224	-127	-109	-99	-3445	-1830	5634
D:	226.12	-2007	701	16224	-127	-148	-103	-3445	-1830	5634
D:	226.99	-1955	602	16291	-161	-148	-103	-3445	-1830	5634
D:	227.86	-1955	602	16291	-161	-148	-103	-3445	-1830	5634
D:	228.81	-1955	602	16291	-161	-148	-103	-3445	-1799	5398
D:	229.92	-1955	602	16291	-161	-148	-103	-3445	-1799	5398
D:	230.97	-2092	673	16345	-204	-37	-148	-3445	-1799	5398
D:	232.17	-2092	673	16345	-204	-37	-148	-3452	-1799	5398
D:	233.36	-2092	673	16345	-204	-37	-148	-3452	-1799	5398
D:	234.35	-2092	673	16345	-204	-119	-217	-3452	-1799	5398
D:	235.24	-2167	575	16021	-72	-119	-217	-3452	-1799	5398
D:	236.11	-2167	575	16021	-72	-119	-217	-3452	-1799	5398
D:	237.00	-2167	575	16021	-72	-119	-217	-3452	-1799	5398
D:	237.84	-2167	575	16021	-72	-119	-217	-3452	-1799	5398
D:	238.71	-2167	575	16021	262	-103	-236	-3452	-1799	5398
D:	239.59	-2124	660	15878	262	-103	-236	-3452	-1799	5398
D:	240.45	-2124	660	15878	262	-103	-236	-3452	-1799	5398
D:	241.32	-2124	660	15878	262	-103	-236	-3452	-1799	5398
D:	242.16	-2124	660	15878	262	-186	-311	-3452	-1799	5398
D:	243.12	-2135	790	15792	402	-186	-311	-3452	-1799	5398
D:	244.02	-2135	790	15792	402	-186	-311	-3452	-1799	5398
D:	244.90	-2135	790	15792	402	-186	-311	-3452	-1799	5398
D:	245.78	-2135	790	15792	402	-186	-311	-3452	-1799	5398
D:	246.66	-2135	790	15792	404	-79	-218	-3452	-1799	5398
D:	247.53	-1972	620	15610	404	-79	-218	-3452	-1799	5398
D:	248.39	-1972	620	15610	404	-79	-218	-3452	-1799	5398
D:	249.24	-1972	620	15610	404	-79	-218	-3452	-1799	5398
D:	250.10	-1972	620	15610	404	-97	-219	-3452	-1799	5398
D:	251.15	-2061	674	15844	153	-97	-219	-3452	-1799	5398
D:	252.22	-2061	674	15844	153	-97	-219	-3460	-1844	5549
D:	253.20	-2061	674	15844	153	-97	-219	-3460	-1844	5549
D:	254.16	-2061	674	15844	153	-80	-212	-3460	-1844	5549
D:	255.14	-1705	686	15361	-45	-80	-212	-3460	-1844	5549
D:	256.01	-1705	686	15361	-45	-80	-212	-3460	-1844	5549
D:	256.89	-1705	686	15361	-45	-80	-212	-3460	-1844	5549
D:	257.78	-1705	686	15361	-45	-80	-212	-3460	-1844	5549
D:	258.66	-1705	686	15361	-185	-57	-227	-3460	-1844	5549
D:	259.53	-1977	894	16076	-185	-57	-227	-3460	-1844	5549
D:	260.40	-1977	894	16076	-185	-57	-227	-3460	-1844	5549
D:	261.24	-1977	894	16076	-185	-57	-227	-3460	-1844	5549
D:	262.09	-1977	894	16076	-185	-95	-189	-3460	-1844	5549
D:	263.00	-1811	963	15831	-238	-95	-189	-3460	-1844	5549
D:	263.87	-1811	963	15831	-238	-95	-189	-3460	-1844	5549
D:	264.73	-1811	963	15831	-238	-95	-189	-3460	-1844	5549
D:	265.68	-1811	963	15831	-238	-95	-189	-3460	-1844	5549
D:	266.53	-1811	963	15831	-206	-63	-214	-3460	-1844	5549
D:	267.36	-1962	987	15694	-206	-63	-214	-3460	-1844	5549
D:	268.21	-1962	987	15694	-206	-63	-214	-3460	-1844	5549
D:	269.09	-1962	987	15694	-206	-63	-214	-3460	-1844	5549
D:	270.08	-1962	987	15694	-206	-153	-153	-3460	-1844	5549
D:	271.11	-1906	964	15995	-246	-153	-153	-3460	-1844	5549
D:	272.10	-1906	964	15995	-246	-153	-153	-3439	-1795	5742
D:	273.09	-1906	964	15995	-246	-153	-153	-3439	-1795	5742
D:	274.01	-1906	964	15995	-246	-44	-256	-3439	-1795	5742
D:	275.00	-1756	961	15558	-315	-44	-256	-3439	-1795	5742
D:	275.94	-1756	961	15558	-315	-44	-256	-3439	-1795	5742
D:	276.81	-1756	961	15558	-315	-44	-256	-3439	-1795	5742
D:	277.69	-1756	961	15558	-315	-44	-256	-3439	-1795	5742
D:	278.59	-1756	961	15558	-431	-72	-85	-3439	-1795	5742
D:	279.46	-1976	948	15980	-431	-72	-85	-3439	-1795	5742
D:	280.36	-1976	948	15980	-431	-72	-85	-3439	-1795	5742
D:	281.22	-1976	948	15980	-431	-72	-85	-3439	-1795	5742
D:	282.09	-1976	948	15980	-431	16	-91	-3439	-1795	5742
D:	282.99	-1899	969	15906	-565	16	-91	-3439	-1795	5742
D:	283.86	-1899	969	15906	-565	16	-91	-3439	-1795	5742
D:	284.72	-1899	969	15906	-565	16	-91	-3439	-1795	5742
D:	285.67	-1899	969	15906	-565	16	-91	-3439	-1795	5742
D:	286.76	-1899	969	15906	-595	54	-77	-3439	-1795	5742
D:	287.78	-2005	949	15695	-595	54	-77	-3439	-1795	5742
D:	288.64	-2005	949	15695	-595	54	-77	-3439	-1795	5742
D:	289.59	-2005	949	15695	-595	54	-77	-3439	-1795	5742
D:	290.53	-2005	949	15695	-449	-48	-17	-3439	-1795	5742
D:	291.39	-2095	851	16179	-449	-48	-17	-3439	-1795	5742
D:	292.34	-2095	851	16179	-449	-48	-17	-3455	-1819	5631
D:	293.23	-2095	851	16179	-449	-48	-17	-3455	-1819	5631
D:	294.12	-2095	851	16179	-449	-12	-78	-3455	-1819	5631
D:	294.97	-2095	851	15539	-466	-12	-78	-3455	-1819	5631
D:	295.84	-1854	802	15539	-466	-12	-78	-3455	-1819	5631
D:	296.72	-1854	802	15539	-466	-12	-78	-3455	-1819	5631
D:	297.79	-1854	802	15539	-466	-12	-78	-3455	-1819	5631
D:	298.96	-2283	872	16148	-309	-57	-149	-3455	-1819	5631
D:	299.89	-2283	872	16148	-309	-57	-149	-3455	-1819	5631
D:	300.74	-2283	872	16148	-309	-57	-149	-3455	-1819	5631
D:	301.68	-2283	872	16148	-309	-57	-149	-3455	-1819	5631
D:	302.54	-2283	872	16148	-281	-106	-149	-3455	-1819	5631
D:	303.41	-1984	713	16004	-281	-106	-149	-3455	-1819	5631
D:	304.29	-1984	713	16004	-281	-106	-149	-3455	-1819	5631
D:	305.16	-1984	713	16004	-281	-106	-149	-3455	-1819	5631
D:	306.13	-1984	713	16004	-281	-199	-225	-3455	-1819	5631
D:	306.99	-1985	685	15911	-282	-199	-225	-3455	-1819	5631
D:	307.86	-1985	685	15911	-282	-199	-225	-3455	-1819	5631
D:	308.71	-1985	685	15911	-282	-199	-225	-3455	-1819	5631
D:	309.55	-1985	685	15911	-282	-199	-225	-3455	-1819	5631
D:	310.39	-1985	685	15911	-26	-244	-277	-3455	-1819	5631
D:	311.26	-2063	779	16384	-132	-244	-277	-3455	-1819	5631
D:	312.13	-2063	779	16384	-132	-244	-277	-3447	-1813	5638
D:	313.23	-2063	779	16384	-132	-244	-277	-3447	-1813	5638
D:	314.11	-2063	779	16384	-132	-269	-235	-3447	-1813	5638
D:	314.99	-2080	737	15982	-19	-269	-235	-3447	-1813	5638
D:	315.86	-2080	737	15982	-19	-269	-235	-3447	-1813	5638
D:	316.94	-2080	737	15982	-19	-269	-235	-3447	-1813	5638
D:	317.92	-2080	737	15982	-19	-269	-235	-3447	-1813	5638
D:	318.94	-2080	737	15982	209	-377	-125	-3447	-1813	5638
D:	319.79	-2014	1021	16152	209	-377	-125	-3447	-1813	5638
D:	320.66	-2014	1021	16152	209	-377	-125	-3447	-1813	5638
D:	321.54	-2014	1021	16152	209	-377	-125	-3447	-1813	5638
D:	322.41	-2014	1021	16152	431	-283	-99	-3447	-1813	5638
D:	323.24	-1863	992	15460	431	-283	-99	-3447	-1813	5638
D:	324.09	-1863	992	15460	431	-283	-99	-3447	-1813	5638
D:	324.99	-1863	992	15460	431	-283	-99	-3447	-1813	5638
D:	325.86	-1863	992	15460	431	-283	-99	-3447	-1813	5638
D:	326.74	-1863	992	15460	615	-190	-154	-3447	-1813	5638
D:	327.68	-1830	1016	15346	615	-190	-154	-3447	-1813	5638
D:	328.55	-1830	1016	15346	615	-190	-154	-3447	-1813	5638
D:	329.45	-1830	1016	15346	615	-190	-154	-3447	-1813	5638
D:	330.30	-1830	1016	15346	615	-180	-167	-3447	-1813	5638
D:	331.47	-1895	1000	15668	624	-180	-167	-3447	-1813	5638
D:	332.40	-1895	1000	15668	624	-180	-167	-3462	-1829	5558
D:	333.35	-1895	1000	15668	624	-180	-167	-3462	-1829	5558
D:	334.23	-1895	1000	15668	624	-111	-194	-3462	-1829	5558
D:	335.11	-1901	1006	15542	444	-111	-194	-3462	-1829	5558
D:	335.99	-1901	1006	15542	444	-111	-194	-3462	-1829	5558
D:	336.86	-1901	1006	15542	444	-111	-194	-3462	-1829	5558
D:	337.72	-1901	1006	15542	444	-111	-194	-3462	-1829	5558
D:	338.68	-1901	1006	15542	170	-58	-219	-3462	-1829	5558
D:	339.53	-1848	1099	15990	170	-58	-219	-3462	-1829	5558
D:	340.55	-1848	1099	15990	170	-58	-219	-3462	-1829	5558
D:	341.47	-1848	1099	15990	170	-58	-219	-3462	-1829	5558
D:	342.36	-1848	1099	15990	-86	-22	-172	-3462	-1829	5558
D:	343.21	-1784	1001	15887	-31	-22	-172	-3462	-1829	5558
D:	344.08	-1784	1001	15887	-31	-22	-172	-3462	-1829	5558
D:	344.97	-1784	1001	15887	-31	-22	-172	-3462	-1829	5558
D:	345.84	-1784	1001	15887	-31	-22	-172	-3462	-1829	5558
D:	346.68	-1784	1001	15887	-250	-68	-202	-3462	-1829	5558
D:	347.55	-1835	1000	15990	-250	-68	-202	-3462	-1829	5558
D:	348.39	-1835	1000	15990	-250	-68	-202	-3462	-1829	5558
D:	349.22	-1835	1000	15990	-250	-68	-202	-3462	-1829	5558
D:	350.06	-1835	1000	15990	-250	-11	-123	-3462	-1829	5558
D:	350.97	-1835	1000	16072	-129	-11	-123	-3462	-1829	5558
D:	351.85	-1883	1063	16072	-129	-11	-123	-3457	-1808	5417
D:	352.89	-1883	1063	16072	-129	-11	-123	-3457	-1808	5417
D:	354.04	-1883	1063	16072	-129	-76	-136	-3457	-1808	5417
D:	355.02	-1924	914	15574	9	-76	-136	-3457	-1808	5417
D:	355.96	-1924	914	15574	9	-76	-136	-3457	-1808	5417
D:	356.82	-1924	914	15574	9	-76	-136	-3457	-1808	5417
D:	357.69	-1924	914	15574	9	-76	-136	-3457	-1808	5417
D:	358.58	-1924	914	15574	62	-80	-215	-3457	-1808	5417
D:	359.43	-2003	744	15814	62	-80	-215	-3457	-1808	5417
D:	360.31	-2003	744	15814	62	-80	-215	-3457	-1808	5417
D:	361.19	-2003	744	15814	62	-80	-215	-3457	-1808	5417
D:	362.06	-2003	744	15814	62	37	-102	-3457	-1808	5417
D:	363.11	-1809	656	15362	-19	37	-102	-3457	-1808	5417
D:	363.97	-1809	656	15362	-19	37	-102	-3457	-1808	5417
D:	364.85	-1809	656	15362	-19	37	-102	-3457	-1808	5417
D:	365.79	-1809	656	15362	-19	37	-102	-3457	-1808	5417
D:	366.66	-1809	656	15362	-85	-30	-222	-3457	-1808	5417
D:	367.53	-1970	700	15719	-85	-30	-222	-3457	-1808	5417
D:	368.37	-1970	700	15719	-85	-30	-222	-3457	-1808	5417
D:	369.22	-1970	700	15719	-85	-30	-222	-3457	-1808	5417
D:	370.06	-1970	700	15719	-85	95	-181	-3457	-1808	5417
D:	371.10	-1810	810	16028	-144	95	-181	-3457	-1808	5417
D:	371.99	-1810	810	16028	-144	95	-181	-3454	-1829	5566
D:	372.97	-1810	810	16028	-144	95	-181	-3454	-1829	5566
D:	373.84	-1810	810	16028	-144	95	-181	-3454	-1829	5566
D:	374.71	-1810	810	16028	34	88	-249	-3454	-1829	5566
D:	375.55	-1911	838	16190	34	88	-249	-3454	-1829	5566
D:	376.42	-1911	838	16190	34	88	-249	-3454	-1829	5566
D:	377.29	-1911	838	16190	34	88	-249	-3454	-1829	5566
D:	378.16	-1911	838	16190	34	80	-251	-3454	-1829	5566
D:	379.06	-1970	831	16599	-74	80	-251	-3454	-1829	5566
D:	379.95	-1970	831	16599	-74	80	-251	-3454	-1829	5566
D:	380.81	-1970	831	16599	-74	80	-251	-3454	-1829	5566
D:	381.68	-1970	831	16599	-74	80	-251	-3454	-1829	5566
D:	382.53	-1970	831	16599	-96	8	-283	-3454	-1829	5566
D:	383.39	-1840	713	16332	-96	8	-283	-3454	-1829	5566
D:	384.44	-1840	713	16332	-96	8	-283	-3454	-1829	5566
D:	385.42	-1840	713	16332	-96	8	-283	-3454	-1829	5566
D:	386.29	-1840	713	16332	-96	-36	-231	-3454	-1829	5566
D:	387.16	-1990	675	16584	-247	-36	-231	-3454	-1829	5566
D:	388.13	-1990	675	16584	-247	-36	-231	-3454	-1829	5566
D:	388.99	-1990	675	16584	-247	-36	-231	-3454	-1829	5566
D:	390.05	-1990	675	16584	-247	-158	-207	-3454	-1829	5566
D:	391.14	-1885	800	16004	-366	-158	-207	-3454	-1829	5566
D:	392.02	-1885	800	16004	-366	-158	-207	-3454	-1829	5733
D:	392.96	-1885	800	16004	-366	-158	-207	-3454	-1829	5733
D:	394.11	-1885	800	16004	-366	-116	-189	-3454	-1829	5733
D:	395.14	-1927	926	16219	-361	-116	-189	-3454	-1829	5733
D:	396.01	-1927	926	16219	-361	-116	-189	-3450	-1796	5733
D:	396.84	-1927	926	16219	-361	-116	-189	-3450	-1796	5733
D:	397.71	-1927	926	16219	-361	-116	-189	-3450	-1796	5733
D:	398.59	-1927	926	16219	-418	-111	-196	-3450	-1796	5733
D:	399.45	-1886	942	16006	-418	-111	-196	-3450	-1796	5733
D:	400.32	-1886	942	16006	-418	-111	-196	-3450	-1796	5733
D:	401.20	-1886	942	16006	-418	-111	-196	-3450	-1796	5733
D:	402.12	-1886	942	16006	-418	-79	-184	-3450	-1796	5733
D:	402.99	-1683	1082	16110	-291	-79	-184	-3450	-1796	5733
D:	404.08	-1683	1082	16110	-291	-79	-184	-3450	-1796	5733
D:	405.12	-1683	1082	16110	-291	-79	-184	-3450	-1796	5733
D:	405.99	-1683	1082	16110	-291	-79	-184	-3450	-1796	5733
D:	406.90	-1683	1082	16110	-285	-59	-488	-3450	-1796	5733
D:	407.79	-1856	1110	16057	-285	-59	-488	-3450	-1796	5733
D:	408.63	-1856	1110	16057	-285	-59	-488	-3450	-1796	5733
D:	409.53	-1856	1110	16057	-285	-59	-488	-3450	-1796	5733
D:	410.56	-1856	1110	16057	-339	6	-284	-3450	-1796	5733
D:	411.53	-1646	1141	15883	-339	6	-284	-3450	-1796	5733
D:	412.48	-1646	1141	15883	-339	6	-284	-3450	-1796	5733
D:	413.56	-1646	1141	15883	-339	6	-284	-3450	-1796	5733
D:	414.42	-1646	1141	15883	-332	-185	-234	-3450	-1796	5733
D:	415.29	-1589	1064	15789	-332	-185	-234	-3450	-1796	5733
D:	416.16	-1589	1064	15789	-332	-185	-234	-3466	-1828	5628
D:	417.12	-1589	1064	15789	-332	-185	-234	-3466	-1828	5628
D:	417.99	-1589	1064	15789	-332	-185	-234	-3466	-1828	5628
D:	418.86	-1589	1064	15789	-462	-102	-124	-3466	-1828	5628
D:	419.74	-1654	1144	15728	-462	-102	-124	-3466	-1828	5628
D:	420.68	-1654	1144	15728	-462	-102	-124	-3466	-1828	5628
D:	421.54	-1654	1144	15728	-462	-102	-124	-3466	-1828	5628
D:	422.38	-1654	1144	15728	-462	-89	-27	-3466	-1828	5628
D:	423.24	-1575	1154	15500	-477	-89	-27	-3466	-1828	5628
D:	424.11	-1575	1154	15500	-477	-89	-27	-3466	-1828	5628
D:	424.98	-1575	1154	15500	-477	-89	-27	-3466	-1828	5628
D:	426.17	-1575	1154	15500	-477	-64	-67	-3466	-1828	5628
D:	427.27	-1710	1298	15909	-444	-64	-67	-3466	-1828	5628
D:	428.18	-1710	1298	15909	-444	-64	-67	-3466	-1828	5628
D:	429.07	-1710	1298	15909	-444	-64	-67	-3466	-1828	5628
D:	429.97	-1710	1298	15909	-444	-64	-67	-3466	-1828	5628
D:	430.82	-1710	1298	15909	-315	-104	-33	-3466	-1828	5628
D:	431.71	-1544	1211	15802	-315	-104	-33	-3466	-1828	5628
D:	432.65	-1544	1211	15802	-315	-104	-33	-3466	-1828	5628
D:	433.53	-1544	1211	15802	-315	-104	-33	-3466	-1828	5628
D:	434.40	-1544	1211	15802	-59	-19	-151	-3466	-1828	5628
D:	435.26	-1780	961	15565	-155	-19	-151	-3466	-1828	5628
D:	436.13	-1780	961	15565	-155	-19	-151	-3455	-1801	5467
D:	437.09	-1780	961	15565	-155	-19	-151	-3455	-1801	5467
D:	437.99	-1780	961	15565	-155	-19	-151	-3455	-1801	5467
D:	438.86	-1780	961	15565	38	-104	-223	-3455	-1801	5467
D:	439.72	-1760	977	15907	38	-104	-223	-3455	-1801	5467
D:	440.58	-1760	977	15907	38	-104	-223	-3455	-1801	5467
D:	441.45	-1760	977	15907	38	-104	-223	-3455	-1801	5467
D:	442.32	-1760	977	15907	294	3	-21	-3455	-1801	5467
D:	443.21	-1835	918	15572	324	3	-21	-3455	-1801	5467
D:	444.08	-1835	918	15572	324	3	-21	-3455	-1801	5467
D:	444.97	-1835	918	15572	324	3	-21	-3455	-1801	5467
D:	445.84	-1835	918	15572	324	3	-21	-3455	-1801	5467
D:	446.66	-1835	918	15572	310	49	-84	-3455	-1801	5467
D:	447.62	-1915	861	15352	310	49	-84	-3455	-1801	5467
D:	448.74	-1915	861	15352	310	49	-84	-3455	-1801	5467
D:	449.66	-1915	861	15352	310	49	-84	-3455	-1801	5467
D:	450.53	-1915	861	15352	206	56	12	-3455	-1801	5467
D:	451.39	-1905	761	15619	206	56	12	-3455	-1801	5467
D:	452.45	-1905	761	15619	206	56	12	-3455	-1801	5467
D:	453.56	-1905	761	15619	206	56	12	-3455	-1801	5467
D:	454.65	-1905	761	15619	99	46	-126	-3455	-1801	5467
D:	455.53	-1705	704	15759	99	46	-126	-3455	-1801	5467
D:	456.41	-1705	704	15759	99	46	-126	-3456	-1804	5614
D:	457.29	-1705	704	15759	99	46	-126	-3456	-1804	5614
D:	458.15	-1705	704	15759	99	112	-185	-3456	-1804	5614
D:	459.12	-1797	683	15853	-103	112	-185	-3456	-1804	5614
D:	459.99	-1797	683	15853	-103	112	-185	-3456	-1804	5614
D:	460.86	-1797	683	15853	-103	112	-185	-3456	-1804	5614
D:	461.68	-1797	683	15853	-103	112	-185	-3456	-1804	5614
D:	462.64	-1797	683	15853	-27	128	-169	-3456	-1804	5614
D:	463.53	-1856	685	15956	-27	128	-169	-3456	-1804	5614
D:	464.37	-1856	685	15956	-27	128	-169	-3456	-1804	5614
D:	465.22	-1856	685	15956	-27	128	-169	-3456	-1804	5614
D:	466.06	-1856	685	15956	-27	17	-105	-3456	-1804	5614
D:	466.95	-1856	685	15956	-21	17	-105	-3456	-1804	5614
D:	467.81	-1917	616	16086	-21	17	-105	-3456	-1804	5614
D:	468.73	-1917	616	16086	-21	17	-105	-3456	-1804	5614
D:	469.74	-1917	616	16086	-21	17	-105	-3456	-1804	5614
D:	470.69	-1917	616	16086	47	58	-133	-3456	-1804	5614
D:	471.62	-1882	724	16182	47	58	-133	-3456	-1804	5614
D:	472.59	-1882	724	16182	47	58	-133	-3456	-1804	5614
D:	473.68	-1882	724	16182	47	58	-133	-3456	-1804	5614
D:	474.55	-1882	724	16182	-31	-11	-64	-3456	-1804	5614
D:	475.39	-1823	678	16122	-31	-11	-64	-3456	-1804	5614
D:	476.24	-1823	678	16122	-31	-11	-64	-3456	-1792	5382
D:	477.13	-1823	678	16122	-31	-11	-64	-3456	-1792	5382
D:	477.99	-1823	678	16122	-31	-11	-64	-3456	-1792	5382
D:	478.99	-1934	629	16166	-92	-13	-125	-3456	-1792	5382
D:	480.06	-1934	629	16166	-92	-13	-125	-3456	-1792	5382
D:	480.95	-1934	629	16166	-92	-13	-125	-3456	-1792	5382
D:	481.81	-1934	629	16166	-92	-13	-125	-3456	-1792	5382
D:	482.69	-1934	629	16166	48	-12	-181	-3456	-1792	5382
D:	483.58	-1854	602	16122	48	-12	-181	-3456	-1792	5382
D:	484.45	-1854	602	16122	48	-12	-181	-3456	-1792	5382
D:	485.35	-1854	602	16122	48	-12	-181	-3456	-1792	5382
D:	486.21	-1854	602	16122	48	-82	-222	-3456	-1792	5382
D:	487.06	-1736	667	15737	172	-82	-222	-3456	-1792	5382
D:	487.92	-1736	667	15737	172	-82	-222	-3456	-1792	5382
D:	488.79	-1736	667	15737	172	-82	-222	-3456	-1792	5382
D:	489.64	-1736	667	15737	172	-82	-222	-3456	-1792	5382
D:	490.54	-1736	667	15737	196	74	-163	-3456	-1792	5382
D:	491.47	-2044	885	15905	196	74	-163	-3456	-1792	5382
D:	492.38	-2044	885	15905	196	74	-163	-3456	-1792	5382
D:	493.36	-2044	885	15905	196	74	-163	-3456	-1792	5382
D:	494.39	-2044	885	15905	196	-18	-87	-3456	-1792	5382
D:	495.41	-1835	1010	15707	57	-18	-87	-3456	-1792	5382
D:	496.34	-1835	1010	15707	57	-18	-87	-3452	-1820	5499
D:	497.22	-1835	1010	15707	57	-18	-87	-3452	-1820	5499
D:	498.06	-1835	1010	15707	57	-27	-107	-3452	-1820	5499
D:	499.07	-2002	969	15670	-91	-27	-107	-3452	-1820	5499
D:	500.14	-2002	969	15670	-91	-27	-107	-3452	-1820	5499
D:	501.16	-2002	969	15670	-91	-27	-107	-3452	-1820	5499
D:	502.10	-2002	969	15670	-91	15	-151	-3452	-1820	5499
D:	502.99	-1898	941	16116	17	15	-151	-3452	-1820	5499
D:	503.86	-1898	941	16116	17	15	-151	-3452	-1820	5499
D:	504.71	-1898	941	16116	17	15	-151	-3452	-1820	5499
D:	505.58	-1898	941	16116	17	15	-151	-3452	-1820	5499
D:	506.46	-1898	941	16116	-119	21	-70	-3452	-1820	5499
D:	507.35	-1754	984	15673	-119	21	-70	-3452	-1820	5499
D:	508.19	-1754	984	15673	-119	21	-70	-3452	-1820	5499
D:	509.12	-1754	984	15673	-119	21	-70	-3452	-1820	5499
D:	510.10	-1754	984	15673	-119	89	-120	-3452	-1820	5499
D:	511.05	-1871	1136	16084	-177	89	-120	-3452	-1820	5499
D:	512.05	-1871	1136	16084	-177	89	-120	-3452	-1820	5499
D:	513.10	-1871	1136	16084	-177	89	-120	-3452	-1820	5499
D:	514.21	-1871	1136	16084	-177	145	-108	-3452	-1820	5499
D:	515.11	-1900	996	16214	-382	145	-108	-3452	-1820	5499
D:	515.99	-1900	996	16214	-382	145	-108	-3448	-1798	5481
D:	516.86	-1900	996	16214	-382	145	-108	-3448	-1798	5481
D:	517.72	-1900	996	16214	-382	145	-108	-3448	-1798	5481
D:	518.58	-1900	996	16214	-422	52	-44	-3448	-1798	5481
D:	519.53	-1797	994	15972	-422	52	-44	-3448	-1798	5481
D:	520.39	-1797	994	15972	-422	52	-44	-3448	-1798	5481
D:	521.25	-1797	994	15972	-422	52	-44	-3448	-1798	5481
D:	522.13	-1797	994	15972	-422	56	66	-3448	-1798	5481
D:	523.00	-1986	982	16170	-359	56	66	-3448	-1798	5481
D:	523.86	-1986	982	16170	-359	56	66	-3448	-1798	5481
D:	524.72	-1986	982	16170	-359	56	66	-3448	-1798	5481
D:	525.67	-1986	982	16170	-359	56	66	-3448	-1798	5481
D:	526.55	-1986	982	16170	-260	48	100	-3448	-1798	5481
D:	527.38	-1877	838	15901	-260	48	100	-3448	-1798	5481
D:	528.22	-1877	838	15901	-260	48	100	-3448	-1798	5481
D:	529.10	-1877	838	15901	-260	48	100	-3448	-1798	5481
D:	529.97	-1877	838	15901	-260	60	16	-3448	-1798	5481
D:	530.91	-2298	860	16004	-54	60	16	-3448	-1798	5481
D:	531.89	-2298	860	16004	-54	60	16	-3448	-1798	5481
D:	532.88	-2298	860	16004	-54	60	16	-3448	-1798	5481
D:	533.78	-2298	860	16004	-54	60	16	-3448	-1798	5481
D:	534.67	-2298	860	16004	55	105	-100	-3448	-1798	5481
D:	535.53	-2003	880	16026	55	105	-100	-3448	-1798	5481
D:	536.39	-2003	880	16026	55	105	-100	-3465	-1825	5606
D:	537.26	-2003	880	16026	55	105	-100	-3465	-1825	5606
D:	538.10	-2003	880	16026	55	114	-161	-3465	-1825	5606
D:	538.97	-2003	880	15789	104	114	-161	-3465	-1825	5606
D:	539.89	-1776	909	15789	104	114	-161	-3465	-1825	5606
D:	540.94	-1776	909	15789	104	114	-161	-3465	-1825	5606
D:	541.94	-1776	909	15789	104	114	-161	-3465	-1825	5606
D:	542.83	-1776	909	15789	-111	157	-167	-3465	-1825	5606
D:	543.68	-1950	870	16090	-111	157	-167	-3465	-1825	5606
D:	544.55	-1950	870	16090	-111	157	-167	-3465	-1825	5606
D:	545.61	-1950	870	16090	-111	157	-167	-3465	-1825	5606
D:	546.81	-1950	870	16172	-194	168	-118	-3465	-1825	5606
D:	547.81	-1804	796	16172	-194	168	-118	-3465	-1825	5606
D:	548.69	-1804	796	16172	-194	168	-118	-3465	-1825	5606
D:	549.74	-1804	796	16172	-194	168	-118	-3465	-1825	5606
D:	550.64	-1804	796	16172	-569	142	-49	-3465	-1825	5606
D:	551.56	-1994	849	15984	-569	142	-49	-3465	-1825	5606
D:	552.56	-1994	849	15984	-569	142	-49	-3465	-1825	5606
D:	553.45	-1994	849	15984	-569	142	-49	-3465	-1825	5606
D:	554.35	-1994	849	15984	-569	242	-48	-3465	-1825	5606
D:	555.21	-1952	907	16228	-607	242	-48	-3465	-1825	5606
D:	556.12	-1952	907	16228	-607	242	-48	-3465	-1825	5529
D:	556.99	-1952	907	16228	-607	242	-48	-3465	-1825	5529
D:	557.86	-1952	907	16228	-607	242	-48	-3465	-1825	5529
D:	558.74	-1952	907	16228	-436	95	2	-3465	-1825	5529
D:	559.67	-1790	780	15947	-436	95	2	-3465	-1825	5529
D:	560.54	-1790	780	15947	-436	95	2	-3454	-1800	5529
D:	561.39	-1790	780	15947	-436	95	2	-3454	-1800	5529
D:	562.28	-1790	780	15947	-436	26	-76	-3454	-1800	5529
D:	563.14	-2098	834	16150	-412	26	-76	-3454	-1800	5529
D:	564.00	-2098	834	16150	-412	26	-76	-3454	-1800	5529
D:	564.86	-2098	834	16150	-412	26	-76	-3454	-1800	5529
D:	565.74	-2098	834	16150	-412	26	-76	-3454	-1800	5529
D:	566.68	-2098	834	16150	-466	83	-41	-3454	-1800	5529
D:	567.54	-1850	742	15810	-466	83	-41	-3454	-1800	5529
D:	568.40	-1850	742	15810	-466	83	-41	-3454	-1800	5529
D:	569.24	-1850	742	15810	-466	83	-41	-3454	-1800	5529
D:	570.11	-1850	742	15810	-466	30	-69	-3454	-1800	5529
D:	571.19	-2000	749	15869	-553	30	-69	-3454	-1800	5529
D:	572.19	-2000	749	15869	-553	30	-69	-3454	-1800	5529
D:	573.08	-2000	749	15869	-553	30	-69	-3454	-1800	5529
D:	574.29	-2000	749	15869	-553	66	-104	-3454	-1800	5529
D:	575.21	-1902	716	16013	-684	66	-104	-3454	-1800	5529
D:	576.08	-1902	716	16013	-684	66	-104	-3454	-1800	5529
D:	577.02	-1902	716	16013	-684	66	-104	-3454	-1800	5529
D:	577.89	-1902	716	16013	-684	66	-104	-3454	-1800	5529
D:	578.84	-1902	716	15930	-648	-31	-91	-3454	-1800	5529
D:	579.89	-2061	685	15930	-648	-31	-91	-3480	-1831	5584
D:	580.87	-2061	685	15930	-648	-31	-91	-3480	-1831	5584
D:	581.74	-2061	685	15930	-648	-31	-91	-3480	-1831	5584
D:	582.63	-2061	685	15930	-484	-78	-84	-3480	-1831	5584
D:	583.53	-2036	760	16159	-484	-78	-84	-3480	-1831	5584
D:	584.40	-2036	760	16159	-484	-78	-84	-3480	-1831	5584
D:	585.26	-2036	760	16159	-484	-78	-84	-3480	-1831	5584
D:	586.11	-2036	760	16159	-484	-97	-129	-3480	-1831	5584
D:	586.99	-1961	734	15814	-261	-97	-129	-3480	-1831	5584
D:	587.86	-1961	734	15814	-261	-97	-129	-3480	-1831	5584
D:	588.71	-1961	734	15814	-261	-97	-129	-3480	-1831	5584
D:	589.65	-1961	734	15814	-261	-97	-129	-3480	-1831	5584
D:	590.53	-1961	734	15814	-271	-45	-119	-3480	-1831	5584
D:	591.51	-2151	777	15816	-271	-45	-119	-3480	-1831	5584
D:	592.45	-2151	777	15816	-271	-45	-119	-3480	-1831	5584
D:	593.54	-2151	777	15816	-271	-45	-119	-3480	-1831	5584
D:	594.44	-2151	777	15816	-248	15	-51	-3480	-1831	5584
D:	595.31	-2132	924	15823	-248	15	-51	-3480	-1831	5584
D:	596.19	-2132	924	15823	-248	15	-51	-3480	-1831	5584
D:	597.11	-2132	924	15823	-248	15	-51	-3480	-1831	5584
D:	597.99	-2132	924	15823	-248	15	-51	-3480	-1831	5584
D:	598.86	-2132	924	15823	-206	-125	-58	-3480	-1831	5584
D:	599.72	-2035	870	15620	-206	-125	-58	-3480	-1831	5584
D:	600.68	-2035	870	15620	-206	-125	-58	-3453	-1801	5427
D:	601.54	-2035	870	15620	-206	-125	-58	-3453	-1801	5427
D:	602.41	-2035	870	15620	-206	-17	-157	-3453	-1801	5427
D:	603.24	-2102	1012	16176	-46	-17	-157	-3453	-1801	5427
D:	604.09	-2102	1012	16176	-46	-17	-157	-3453	-1801	5427
D:	604.99	-2102	1012	16176	-46	-17	-157	-3453	-1801	5427
D:	605.86	-2102	1012	16176	-46	-17	-157	-3453	-1801	5427
D:	606.72	-2102	1012	16176	-67	-20	-171	-3453	-1801	5427
D:	607.68	-2036	856	15702	-67	-20	-171	-3453	-1801	5427
D:	608.57	-2036	856	15702	-67	-20	-171	-3453	-1801	5427
D:	609.41	-2036	856	15702	-67	-20	-171	-3453	-1801	5427
D:	610.28	-2036	856	15702	-67	-103	-177	-3453	-1801	5427
D:	611.28	-2075	872	15568	-91	-103	-177	-3453	-1801	5427
D:	612.17	-2075	872	15568	-91	-103	-177	-3453	-1801	5427
D:	613.16	-2075	872	15568	-91	-103	-177	-3453	-1801	5427
D:	614.27	-2075	872	15568	-91	-84	-170	-3453	-1801	5427
D:	615.13	-2000	827	15709	-99	-84	-170	-3453	-1801	5427
D:	615.99	-2000	827	15709	-99	-84	-170	-3453	-1801	5427
D:	616.84	-2000	827	15709	-99	-84	-170	-3453	-1801	5427
D:	617.72	-2000	827	15709	-99	-84	-170	-3453	-1801	5427
D:	618.63	-2000	827	15709	-205	-77	-143	-3453	-1801	5427
D:	619.53	-1922	879	15533	-205	-77	-143	-3453	-1801	5427
D:	620.39	-1922	879	15533	-205	-77	-143	-3478	-1824	5530
D:	621.26	-1922	879	15533	-205	-77	-143	-3478	-1824	5530
D:	622.13	-1922	879	15533	-205	21	-141	-3478	-1824	5530
D:	623.00	-1991	934	15716	-404	21	-141	-3478	-1824	5530
D:	623.86	-1991	934	15716	-404	21	-141	-3478	-1824	5530
D:	624.79	-1991	934	15716	-404	21	-141	-3478	-1824	5530
D:	625.82	-1991	934	15716	-404	21	-141	-3478	-1824	5530
D:	626.73	-1991	934	15716	-349	96	-166	-3478	-1824	5530
D:	627.63	-1886	836	15536	-349	96	-166	-3478	-1824	5530
D:	628.58	-1886	836	15536	-349	96	-166	-3478	-1824	5530
D:	629.78	-1886	836	15536	-349	96	-166	-3478	-1824	5530
D:	630.76	-1886	836	15536	-425	-215	-149	-3478	-1824	5530
D:	631.66	-1803	931	15985	-425	-215	-149	-3478	-1824	5530
D:	632.68	-1803	931	15985	-425	-215	-149	-3478	-1824	5530
D:	633.76	-1803	931	15985	-425	-215	-149	-3478	-1824	5530
D:	634.68	-1803	931	15985	-370	-24	-75	-3478	-1824	5530
D:	635.62	-1646	851	15947	-370	-24	-75	-3478	-1824	5530
D:	636.47	-1646	851	15947	-370	-24	-75	-3478	-1824	5530
D:	637.35	-1646	851	15947	-370	-24	-75	-3478	-1824	5530
D:	638.21	-1646	851	15947	-370	-30	-122	-3478	-1824	5530
D:	639.09	-1918	902	15840	-232	-30	-122	-3478	-1824	5530
D:	639.99	-1918	902	15840	-232	-30	-122	-3467	-1789	5819
D:	640.86	-1918	902	15840	-232	-30	-122	-3467	-1789	5819
D:	641.74	-1918	902	15840	-232	-30	-122	-3467	-1789	5819
D:	642.67	-1918	902	15840	-144	-74	-203	-3467	-1789	5819
D:	643.54	-1946	932	15938	-144	-74	-203	-3467	-1789	5819
D:	644.38	-1946	932	15938	-144	-74	-203	-3467	-1789	5819
D:	645.21	-1946	932	15938	-144	-74	-203	-3467	-1789	5819
D:	646.29	-1946	932	15938	-144	-115	-214	-3467	-1789	5819
D:	647.23	-1601	954	15699	38	-115	-214	-3467	-1789	5819
D:	648.06	-1601	954	15699	38	-115	-214	-3467	-1789	5819
D:	648.98	-1601	954	15699	38	-115	-214	-3467	-1789	5819
D:	650.14	-1601	954	15699	38	-4	-181	-3467	-1789	5819
D:	651.00	-1779	934	15903	82	-4	-181	-3467	-1789	5819
D:	651.92	-1779	934	15903	82	-4	-181	-3467	-1789	5819
D:	652.87	-1779	934	15903	82	-4	-181	-3467	-1789	5819
D:	653.94	-1779	934	15903	82	-70	-197	-3467	-1789	5819
D:	654.86	-1779	934	15903	17	-70	-197	-3467	-1789	5819
D:	655.74	-1846	926	15841	17	-70	-197	-3467	-1789	5819
D:	656.68	-1846	926	15841	17	-70	-197	-3467	-1789	5819
D:	657.85	-1846	926	15841	17	-21	-114	-3467	-1789	5819
D:	658.96	-1846	926	15825	3	-21	-114	-3467	-1789	5819
D:	659.84	-1741	996	15825	3	-21	-114	-3467	-1789	5819
D:	660.85	-1741	996	15825	3	-21	-114	-3486	-1797	5617
D:	661.81	-1741	996	15825	3	-21	-114	-3486	-1797	5617
D:	662.69	-1741	996	15825	-131	57	-165	-3486	-1797	5617
D:	663.58	-1890	967	15832	-131	57	-165	-3486	-1797	5617
D:	664.46	-1890	967	15832	-131	57	-165	-3486	-1797	5617
D:	665.35	-1890	967	15832	-131	57	-165	-3486	-1797	5617
D:	666.19	-1890	967	15832	-131	-40	-87	-3486	-1797	5617
D:	667.06	-1832	1028	15490	-177	-40	-87	-3486	-1797	5617
D:	667.96	-1832	1028	15490	-177	-40	-87	-3486	-1797	5617
D:	668.83	-1832	1028	15490	-177	-40	-87	-3486	-1797	5617
D:	669.80	-1832	1028	15490	-177	-40	-87	-3486	-1797	5617
D:	670.74	-1832	1028	15490	-197	-8	-116	-3486	-1797	5617
D:	671.65	-2006	843	15948	-197	-8	-116	-3486	-1797	5617
D:	672.77	-2006	843	15948	-197	-8	-116	-3486	-1797	5617
D:	673.66	-2006	843	15948	-197	-8	-116	-3486	-1797	5617
D:	674.53	-2006	843	15948	6	63	-147	-3486	-1797	5617
D:	675.40	-2002	784	15931	6	63	-147	-3486	-1797	5617
D:	676.28	-2002	784	15931	6	63	-147	-3486	-1797	5617
D:	677.12	-2002	784	15931	6	63	-147	-3486	-1797	5617
D:	678.00	-2002	784	15931	6	8	-149	-3486	-1797	5617
D:	679.06	-1910	743	16049	-5	8	-149	-3486	-1797	5617
D:	680.00	-1910	743	16049	-5	8	-149	-3481	-1787	5348
D:	680.88	-1910	743	16049	-5	8	-149	-3481	-1787	5348
D:	681.76	-1910	743	16049	-5	8	-149	-3481	-1787	5348
D:	682.68	-1910	743	16049	145	47	-197	-3481	-1787	5348
D:	683.54	-2046	902	16251	145	47	-197	-3481	-1787	5348
D:	684.40	-2046	902	16251	145	47	-197	-3481	-1787	5348
D:	685.26	-2046	902	16251	145	47	-197	-3481	-1787	5348
D:	686.12	-2046	902	16251	145	22	-165	-3481	-1787	5348
D:	686.97	-2046	902	16033	211	22	-165	-3481	-1787	5348
D:	687.84	-1863	724	16033	211	22	-165	-3481	-1787	5348
D:	688.71	-1863	724	16033	211	22	-165	-3481	-1787	5348
D:	689.56	-1863	724	16033	211	22	-165	-3481	-1787	5348
D:	690.42	-1863	724	16033	250	19	-104	-3481	-1787	5348
D:	691.33	-2049	536	16307	250	19	-104	-3481	-1787	5348
D:	692.25	-2049	536	16307	250	19	-104	-3481	-1787	5348
D:	693.31	-2049	536	16307	250	19	-104	-3481	-1787	5348
D:	694.38	-2049	536	16307	506	-19	-203	-3481	-1787	5348
D:	695.38	-1996	618	15996	289	-19	-203	-3481	-1787	5348
D:	696.28	-1996	618	15996	289	-19	-203	-3481	-1787	5348
D:	697.26	-1996	618	15996	289	-19	-203	-3481	-1787	5348
D:	698.28	-1996	618	15996	289	-14	-201	-3481	-1787	5348
D:	699.15	-1902	526	16199	208	-14	-201	-3481	-1787	5348
D:	700.01	-1902	526	16199	208	-14	-201	-3482	-1833	5607
D:	700.86	-1902	526	16199	208	-14	-201	-3482	-1833	5607
D:	701.71	-1902	526	16199	208	-14	-201	-3482	-1833	5607
D:	702.58	-1902	526	16199	218	-63	-152	-3482	-1833	5607
D:	703.45	-2040	533	16224	218	-63	-152	-3482	-1833	5607
D:	704.32	-2040	533	16224	218	-63	-152	-3482	-1833	5607
D:	705.19	-2040	533	16224	218	-63	-152	-3482	-1833	5607
D:	706.11	-2040	533	16224	218	49	-150	-3482	-1833	5607
D:	706.99	-1964	521	16040	79	49	-150	-3482	-1833	5607
D:	707.86	-1964	521	16040	79	49	-150	-3482	-1833	5607
D:	708.74	-1964	521	16040	79	49	-150	-3482	-1833	5607
D:	709.79	-1964	521	16040	79	49	-150	-3482	-1833	5607
D:	710.70	-1964	521	16040	-125	-29	-203	-3482	-1833	5607
D:	711.64	-1902	638	16254	-125	-29	-203	-3482	-1833	5607
D:	712.67	-1902	638	16254	-125	-29	-203	-3482	-1833	5607
D:	713.92	-1902	638	16254	-125	-135	-117	-3482	-1833	5607
D:	714.99	-1878	628	15835	-336	-135	-117	-3482	-1833	5607
D:	715.95	-1878	628	15835	-336	-135	-117	-3482	-1833	5607
D:	716.82	-1878	628	15835	-336	-135	-117	-3482	-1833	5607
D:	717.69	-1878	628	15835	-336	-135	-117	-3482	-1833	5607
D:	718.58	-1878	628	15835	-421	-40	-125	-3482	-1833	5607
D:	719.44	-1852	600	15798	-421	-40	-125	-3482	-1833	5607
D:	720.29	-1852	600	15798	-421	-40	-125	-3482	-1833	5554
D:	721.23	-1852	600	15798	-421	-40	-125	-3482	-1833	5554
D:	722.22	-1852	600	15798	-421	-72	-134	-3482	-1833	5554
D:	723.11	-1937	750	16025	-472	-72	-134	-3482	-1833	5554
D:	724.08	-1937	750	16025	-472	-72	-134	-3489	-1828	5554
D:	724.99	-1937	750	16025	-472	-72	-134	-3489	-1828	5554
D:	725.86	-1937	750	16025	-472	-72	-134	-3489	-1828	5554
D:	726.74	-1937	750	16025	-308	-95	-222	-3489	-1828	5554
D:	727.68	-2006	770	16108	-308	-95	-222	-3489	-1828	5554
D:	728.79	-2006	770	16108	-308	-95	-222	-3489	-1828	5554
D:	729.84	-2006	770	16108	-308	-95	-222	-3489	-1828	5554
D:	730.79	-2006	770	16108	-336	-73	-250	-3489	-1828	5554
D:	731.63	-1587	923	16223	-336	-73	-250	-3489	-1828	5554
D:	732.55	-1587	923	16223	-336	-73	-250	-3489	-1828	5554
D:	733.40	-1587	923	16223	-336	-73	-250	-3489	-1828	5554
D:	734.24	-1587	923	16223	-336	52	-296	-3489	-1828	5554
D:	735.19	-1737	850	16043	-413	52	-296	-3489	-1828	5554
D:	736.28	-1737	850	16043	-413	52	-296	-3489	-1828	5554
D:	737.25	-1737	850	16043	-413	52	-296	-3489	-1828	5554
D:	738.12	-1737	850	16043	-413	36	-187	-3489	-1828	5554
D:	738.99	-1838	862	15917	-558	36	-187	-3489	-1828	5554
D:	739.86	-1838	862	15917	-558	36	-187	-3489	-1828	5554
D:	740.71	-1838	862	15917	-558	36	-187	-3489	-1828	5554
D:	741.65	-1838	862	15917	-558	36	-187	-3489	-1828	5554
D:	742.54	-1838	862	15917	-682	-71	-49	-3489	-1828	5554
D:	743.43	-1845	1114	16417	-682	-71	-49	-3489	-1828	5554
D:	744.31	-1845	1114	16417	-682	-71	-49	-3490	-1830	5480
D:	745.43	-1845	1114	16417	-682	-71	-49	-3490	-1830	5480
D:	746.35	-1845	1114	16417	-682	-69	-54	-3490	-1830	5480
D:	747.21	-1685	1036	16174	-756	-69	-54	-3490	-1830	5480
D:	748.08	-1685	1036	16174	-756	-69	-54	-3490	-1830	5480
D:	748.99	-1685	1036	16174	-756	-69	-54	-3490	-1830	5480
D:	749.84	-1685	1036	16174	-756	-69	-54	-3490	-1830	5480
D:	750.71	-1685	1036	16174	-569	-14	-20	-3490	-1830	5480
D:	751.74	-1858	1178	16140	-569	-14	-20	-3490	-1830	5480
D:	752.82	-1858	1178	16140	-569	-14	-20	-3490	-1830	5480
D:	753.79	-1858	1178	16140	-569	-14	-20	-3490	-1830	5480
D:	754.66	-1858	1178	16140	-502	-20	-193	-3490	-1830	5480
D:	755.53	-1719	1134	15870	-502	-20	-193	-3490	-1830	5480
D:	756.37	-1719	1134	15870	-502	-20	-193	-3490	-1830	5480
D:	757.24	-1719	1134	15870	-502	-20	-193	-3490	-1830	5480
D:	758.11	-1719	1134	15870	-502	-102	-125	-3490	-1830	5480
D:	758.99	-1782	1069	15840	-288	-102	-125	-3490	-1830	5480
D:	759.86	-1782	1069	15840	-288	-102	-125	-3490	-1830	5480
D:	760.72	-1782	1069	15840	-288	-102	-125	-3490	-1830	5480
D:	761.63	-1782	1069	15840	-288	-102	-125	-3490	-1830	5480
D:	762.53	-1782	1069	15840	-129	-141	-226	-3490	-1830	5480
D:	763.40	-1739	1178	15885	-129	-141	-226	-3490	-1830	5480
D:	764.39	-1739	1178	15885	-129	-141	-226	-3485	-1812	5808
D:	765.35	-1739	1178	15885	-129	-141	-226	-3485	-1812	5808
D:	766.24	-1739	1178	15885	-129	-64	-138	-3485	-1812	5808
D:	767.12	-1482	1170	15618	-138	-64	-138	-3485	-1812	5808
D:	767.99	-1482	1170	15618	-138	-64	-138	-3485	-1812	5808
D:	768.84	-1482	1170	15618	-138	-64	-138	-3485	-1812	5808
D:	769.79	-1482	1170	15618	-138	-64	-138	-3485	-1812	5808
D:	770.74	-1482	1170	15618	-494	-98	-168	-3485	-1812	5808
D:	771.67	-1725	1112	15843	-494	-98	-168	-3485	-1812	5808
D:	772.68	-1725	1112	15843	-494	-98	-168	-3485	-1812	5808
D:	773.72	-1725	1112	15843	-494	-98	-168	-3485	-1812	5808
D:	774.77	-1725	1112	15843	-483	72	-51	-3485	-1812	5808
D:	775.71	-1711	1016	15757	-483	72	-51	-3485	-1812	5808
D:	776.59	-1711	1016	15757	-483	72	-51	-3485	-1812	5808
D:	777.42	-1711	1016	15757	-483	72	-51	-3485	-1812	5808
D:	778.26	-1711	1016	15757	-483	83	-8	-3485	-1812	5808
D:	779.11	-1824	1084	15976	-535	83	-8	-3485	-1812	5808
D:	779.99	-1824	1084	15976	-535	83	-8	-3485	-1812	5808
D:	780.86	-1824	1084	15976	-535	83	-8	-3485	-1812	5808
D:	781.74	-1824	1084	15976	-535	83	-8	-3485	-1812	5808
D:	782.67	-1824	1084	15976	-552	175	-40	-3485	-1812	5808
D:	783.54	-1862	1044	16045	-552	175	-40	-3485	-1812	5808
D:	784.37	-1862	1044	16045	-552	175	-40	-3497	-1830	5508
D:	785.21	-1862	1044	16045	-552	175	-40	-3497	-1830	5508
D:	786.06	-1862	1044	16045	-552	218	-73	-3497	-1830	5508
D:	786.95	-1862	1044	16045	-473	218	-73	-3497	-1830	5508
D:	787.80	-1751	994	15832	-473	218	-73	-3497	-1830	5508
D:	788.69	-1751	994	15832	-473	218	-73	-3497	-1830	5508
D:	789.53	-1751	994	15832	-473	218	-73	-3497	-1830	5508
D:	790.38	-1751	994	15832	-473	31	74	-3497	-1830	5508
D:	791.26	-2075	1196	15936	-331	31	74	-3497	-1830	5508
D:	792.40	-2075	1196	15936	-331	31	74	-3497	-1830	5508
D:	793.41	-2075	1196	15936	-331	31	74	-3497	-1830	5508
D:	794.29	-2075	1196	15936	-331	85	83	-3497	-1830	5508
D:	795.17	-1979	747	15833	-316	85	83	-3497	-1830	5508
D:	796.08	-1979	747	15833	-316	85	83	-3497	-1830	5508
D:	796.99	-1979	747	15833	-316	85	83	-3497	-1830	5508
D:	797.86	-1979	747	15833	-316	85	83	-3497	-1830	5508
D:	798.73	-1979	747	15833	-274	114	59	-3497	-1830	5508
D:	799.68	-1983	888	15992	-274	114	59	-3497	-1830	5508
D:	800.53	-1983	888	15992	-274	114	59	-3497	-1830	5508
D:	801.39	-1983	888	15992	-274	114	59	-3497	-1830	5508
D:	802.26	-1983	888	15992	-274	145	65	-3497	-1830	5508
D:	803.11	-2036	848	16138	-231	145	65	-3497	-1830	5508
D:	803.99	-2036	848	16138	-231	145	65	-3497	-1822	5711
D:	804.86	-2036	848	16138	-231	145	65	-3497	-1822	5711
D:	805.68	-2036	848	16138	-231	145	65	-3497	-1822	5711
D:	806.53	-2036	848	16138	-308	123	21	-3497	-1822	5711
D:	807.58	-2038	708	15981	-308	123	21	-3497	-1822	5711
D:	808.55	-2038	708	15981	-308	123	21	-3497	-1822	5711
D:	809.45	-2038	708	15981	-308	123	21	-3497	-1822	5711
D:	810.29	-2038	708	15981	-308	163	-6	-3497	-1822	5711
D:	811.14	-2156	750	16080	-672	163	-6	-3497	-1822	5711
D:	812.28	-2156	750	16080	-672	163	-6	-3497	-1822	5711
D:	813.22	-2156	750	16080	-672	163	-6	-3497	-1822	5711
D:	814.08	-2156	750	16080	-672	138	106	-3497	-1822	5711
D:	814.99	-2113	664	16093	-795	138	106	-3497	-1822	5711
D:	815.86	-2113	664	16093	-795	138	106	-3497	-1822	5711
D:	816.71	-2113	664	16093	-795	138	106	-3497	-1822	5711
D:	817.55	-2113	664	16093	-795	138	106	-3497	-1822	5711
D:	818.41	-2113	664	16093	-795	194	181	-3497	-1822	5711
D:	819.29	-2007	597	16323	-845	194	181	-3497	-1822	5711
D:	820.16	-2007	597	16323	-845	194	181	-3497	-1822	5711
D:	821.12	-2007	597	16323	-845	194	181	-3497	-1822	5711
D:	821.99	-2007	597	16323	-845	194	181	-3497	-1822	5711
D:	822.89	-2007	597	16323	-755	119	70	-3497	-1822	5711
D:	823.77	-2093	631	16219	-755	119	70	-3497	-1822	5711
D:	824.63	-2093	631	16219	-755	119	70	-3487	-1801	5462
D:	825.53	-2093	631	16219	-755	119	70	-3487	-1801	5462
D:	826.40	-2093	631	16219	-499	162	10	-3487	-1801	5462
D:	827.56	-1895	557	15838	-491	162	10	-3487	-1801	5462
D:	828.59	-1895	557	15838	-491	162	10	-3487	-1801	5462
D:	829.53	-1895	557	15838	-491	162	10	-3487	-1801	5462
D:	830.52	-1895	557	15838	-345	85	11	-3487	-1801	5462
D:	831.54	-1976	654	15934	-345	85	11	-3487	-1801	5462
D:	832.58	-1976	654	15934	-345	85	11	-3487	-1801	5462
D:	833.93	-1976	654	15934	-345	37	72	-3487	-1801	5462
D:	835.24	-1901	786	15748	-357	37	72	-3487	-1801	5462
D:	836.42	-1901	786	15748	-357	37	72	-3487	-1801	5462
D:	837.29	-1901	786	15748	-357	37	72	-3487	-1801	5462
D:	838.16	-1901	786	15748	-357	57	41	-3487	-1801	5462
D:	839.08	-1835	854	15440	-476	57	41	-3487	-1801	5462
D:	839.99	-1835	854	15440	-476	57	41	-3487	-1801	5462
D:	840.86	-1835	854	15440	-476	57	41	-3487	-1801	5462
D:	841.71	-1835	854	15440	-476	57	41	-3487	-1801	5462
D:	842.54	-1835	854	15440	-380	27	80	-3487	-1801	5462
D:	843.41	-1839	1033	15898	-380	27	80	-3487	-1801	5462
D:	844.26	-1839	1033	15898	-380	27	80	-3495	-1781	5641
D:	845.15	-1839	1033	15898	-380	27	80	-3495	-1781	5641
D:	846.36	-1839	1033	15898	-636	85	129	-3495	-1781	5641
D:	847.42	-1814	956	15626	-523	85	129	-3495	-1781	5641
D:	848.30	-1814	956	15626	-523	85	129	-3495	-1781	5641
D:	849.41	-1814	956	15626	-523	85	129	-3495	-1781	5641
D:	850.35	-1814	956	15626	-267	61	124	-3495	-1781	5641
D:	851.35	-1883	1134	16100	-381	61	124	-3495	-1781	5641
D:	852.25	-1883	1134	16100	-381	61	124	-3495	-1781	5641
D:	853.12	-1883	1134	16100	-381	61	124	-3495	-1781	5641
D:	854.10	-1883	1134	16100	-381	61	37	-3495	-1781	5641
D:	855.00	-1925	756	15698	-216	61	37	-3495	-1781	5641
D:	855.87	-1925	756	15698	-216	61	37	-3495	-1781	5641
D:	856.71	-1925	756	15698	-216	61	37	-3495	-1781	5641
D:	857.55	-1925	756	15698	-216	61	37	-3495	-1781	5641
D:	858.41	-1925	756	15698	40	-2	68	-3495	-1781	5641
D:	859.29	-1853	745	15568	196	-2	68	-3495	-1781	5641
D:	860.16	-1853	745	15568	196	-2	68	-3495	-1781	5641
D:	861.09	-1853	745	15568	196	-2	68	-3495	-1781	5641
D:	862.12	-1853	745	15568	196	101	52	-3495	-1781	5641
D:	863.14	-1946	586	15484	276	101	52	-3495	-1781	5641
D:	864.01	-1946	586	15484	276	101	52	-3506	-1798	5487
D:	864.87	-1946	586	15484	276	101	52	-3506	-1798	5487
D:	865.73	-1946	586	15484	276	101	52	-3506	-1798	5487
D:	866.67	-1946	586	15484	197	339	-102	-3506	-1798	5487
D:	867.67	-1797	540	15620	197	339	-102	-3506	-1798	5487
D:	868.74	-1797	540	15620	197	339	-102	-3506	-1798	5487
D:	869.64	-1797	540	15620	197	339	-102	-3506	-1798	5487
D:	870.54	-1797	540	15620	-1	339	-136	-3506	-1798	5487
D:	871.62	-1982	422	15787	-1	339	-136	-3506	-1798	5487
D:	872.65	-1982	422	15787	-1	339	-136	-3506	-1798	5487
D:	873.65	-1982	422	15787	-1	339	-136	-3506	-1798	5487
D:	874.65	-1982	422	15787	-74	412	-189	-3506	-1798	5487
D:	875.53	-1930	520	15992	-74	412	-189	-3506	-1798	5487
D:	876.41	-1930	520	15992	-74	412	-189	-3506	-1798	5487
D:	877.26	-1930	520	15992	-74	412	-189	-3506	-1798	5487
D:	878.14	-1930	520	15992	-74	331	-47	-3506	-1798	5487
D:	879.08	-1939	367	16320	-360	331	-47	-3506	-1798	5487
D:	879.98	-1939	367	16320	-360	331	-47	-3506	-1798	5487
D:	880.81	-1939	367	16320	-360	331	-47	-3506	-1798	5487
D:	881.66	-1939	367	16320	-360	331	-47	-3506	-1798	5487
D:	882.53	-1939	367	16320	-670	440	-53	-3506	-1798	5487
D:	883.39	-2118	364	16198	-670	440	-53	-3506	-1798	5487
D:	884.26	-2118	364	16198	-670	440	-53	-3506	-1798	5743
D:	885.14	-2118	364	16198	-670	440	-53	-3506	-1798	5743
D:	886.00	-2118	364	16198	-670	440	-53	-3506	-1798	5743
D:	886.86	-2118	364	16198	-461	342	-85	-3506	-1798	5743
D:	887.73	-1826	482	16665	-461	342	-85	-3506	-1798	5743
D:	888.63	-1826	482	16665	-461	342	-85	-3493	-1805	5641
D:	889.57	-1826	482	16665	-461	342	-85	-3493	-1805	5641
D:	890.71	-1826	482	16665	-410	266	-167	-3493	-1805	5641
D:	891.70	-2111	630	16653	-410	266	-167	-3493	-1805	5641
D:	892.68	-2111	630	16653	-410	266	-167	-3493	-1805	5641
D:	893.74	-2111	630	16653	-410	266	-167	-3493	-1805	5641
D:	894.64	-2111	630	16653	-465	96	-22	-3493	-1805	5641
D:	895.60	-2224	558	16473	-465	96	-22	-3493	-1805	5641
D:	896.53	-2224	558	16473	-465	96	-22	-3493	-1805	5641
D:	897.40	-2224	558	16473	-465	96	-22	-3493	-1805	5641
D:	898.26	-2224	558	16473	-465	128	-26	-3493	-1805	5641
D:	899.11	-2118	634	16104	-443	128	-26	-3493	-1805	5641
D:	899.99	-2118	634	16104	-443	128	-26	-3493	-1805	5641
D:	900.86	-2118	634	16104	-443	128	-26	-3493	-1805	5641
D:	901.71	-2118	634	16104	-443	128	-26	-3493	-1805	5641
D:	902.55	-2118	634	16104	-421	-215	24	-3493	-1805	5641
D:	903.39	-1938	655	16227	-421	-215	24	-3493	-1805	5641
D:	904.24	-1938	655	16227	-421	-215	24	-3493	-1805	5641
D:	905.11	-1938	655	16227	-421	-215	24	-3493	-1805	5641
D:	905.99	-1938	655	16227	-421	-215	24	-3493	-1805	5641
D:	906.86	-1938	655	16238	-372	-195	-36	-3493	-1805	5641
D:	907.92	-1782	638	16238	-372	-195	-36	-3484	-1785	5474
D:	908.96	-1782	638	16238	-372	-195	-36	-3484	-1785	5474
D:	909.82	-1782	638	16238	-372	-195	-36	-3484	-1785	5474
D:	910.66	-1782	638	16238	-212	-122	-106	-3484	-1785	5474
D:	911.57	-1875	660	16028	-212	-122	-106	-3484	-1785	5474
D:	912.54	-1875	660	16028	-212	-122	-106	-3484	-1785	5474
D:	913.39	-1875	660	16028	-212	-122	-106	-3484	-1785	5474
D:	914.24	-1875	660	16028	-212	-65	-132	-3484	-1785	5474
D:	915.18	-1765	606	15804	-20	-65	-132	-3484	-1785	5474
D:	916.31	-1765	606	15804	-20	-65	-132	-3484	-1785	5474
D:	917.28	-1765	606	15804	-20	-65	-132	-3484	-1785	5474
D:	918.17	-1765	606	15804	-20	-163	-254	-3484	-1785	5474
D:	919.10	-1773	562	15617	46	-163	-254	-3484	-1785	5474
D:	919.99	-1773	562	15617	46	-163	-254	-3484	-1785	5474
D:	920.84	-1773	562	15617	46	-163	-254	-3484	-1785	5474
D:	922.04	-1773	562	15617	46	-47	-301	-3484	-1785	5474
D:	923.12	-1908	733	15659	-36	-47	-301	-3484	-1785	5474
D:	924.00	-1908	733	15659	-36	-47	-301	-3484	-1785	5474
D:	924.86	-1908	733	15659	-36	-47	-301	-3484	-1785	5474
D:	925.71	-1908	733	15659	-36	-47	-301	-3484	-1785	5474
D:	926.58	-1908	733	15659	-333	37	-247	-3484	-1785	5474
D:	927.42	-1890	609	15547	-333	37	-247	-3484	-1785	5474
D:	928.42	-1890	609	15547	-333	37	-247	-3476	-1769	5298
D:	929.56	-1890	609	15547	-333	37	-247	-3476	-1769	5298
D:	930.46	-1890	609	15547	-566	69	-167	-3476	-1769	5298
D:	931.36	-2093	700	15834	-566	69	-167	-3476	-1769	5298
D:	932.27	-2093	700	15834	-566	69	-167	-3476	-1769	5298
D:	933.29	-2093	700	15834	-566	69	-167	-3476	-1769	5298
D:	934.28	-2093	700	15834	-566	-21	-75	-3476	-1769	5298
D:	935.20	-1946	590	15871	-593	-21	-75	-3476	-1769	5298
D:	936.09	-1946	590	15871	-593	-21	-75	-3476	-1769	5298
D:	937.00	-1946	590	15871	-593	-21	-75	-3476	-1769	5298
D:	937.87	-1946	590	15871	-593	-21	-75	-3476	-1769	5298
D:	938.75	-1946	590	15871	-598	-7	-49	-3476	-1769	5298
D:	939.63	-2040	482	16048	-598	-7	-49	-3476	-1769	5298
D:	940.53	-2040	482	16048	-598	-7	-49	-3476	-1769	5298
D:	941.37	-2040	482	16048	-598	-7	-49	-3476	-1769	5298
D:	942.23	-2040	482	16048	-598	-10	-107	-3476	-1769	5298
D:	943.17	-1931	448	15801	-592	-10	-107	-3476	-1769	5298
D:	944.14	-1931	448	15801	-592	-10	-107	-3476	-1769	5298
D:	944.99	-1931	448	15801	-592	-10	-107	-3476	-1769	5298
D:	946.09	-1931	448	15801	-592	-16	-76	-3476	-1769	5298
D:	947.03	-1958	593	15760	-814	-16	-76	-3476	-1769	5298
D:	947.89	-1958	593	15760	-814	-16	-76	-3476	-1769	5298
D:	948.74	-1958	593	15760	-814	-16	-76	-3484	-1760	5671
D:	949.64	-1958	593	15760	-814	-16	-76	-3484	-1760	5671
D:	950.51	-1958	593	15760	-1086	-76	-35	-3484	-1760	5671
D:	951.53	-2093	852	15883	-1086	-76	-35	-3484	-1760	5671
D:	952.59	-2093	852	15883	-1086	-76	-35	-3484	-1760	5671
D:	953.71	-2093	852	15883	-1086	-76	-35	-3484	-1760	5671
D:	954.68	-2093	852	15883	-1152	-92	-59	-3484	-1760	5671
D:	955.80	-1883	810	15832	-1152	-92	-59	-3484	-1760	5671
D:	956.74	-1883	810	15832	-1152	-92	-59	-3484	-1760	5671
D:	957.68	-1883	810	15832	-1152	-92	-59	-3484	-1760	5671
D:	958.54	-1883	810	15832	-1067	-156	-114	-3484	-1760	5671
D:	959.41	-1899	830	16056	-1067	-156	-114	-3484	-1760	5671
D:	960.26	-1899	830	16056	-1067	-156	-114	-3484	-1760	5671
D:	961.09	-1899	830	16056	-1067	-156	-114	-3484	-1760	5671
D:	961.97	-1899	830	16056	-1067	-156	-114	-3484	-1760	5671
D:	962.86	-1899	830	16056	-842	-74	-137	-3484	-1760	5671
D:	963.71	-2008	822	15867	-842	-74	-137	-3484	-1760	5671
D:	964.77	-2008	822	15867	-842	-74	-137	-3484	-1760	5671
D:	965.81	-2008	822	15867	-842	-74	-137	-3484	-1760	5671
D:	966.68	-2008	822	15867	-624	-49	-176	-3484	-1760	5671
D:	967.58	-2047	879	16020	-624	-49	-176	-3484	-1760	5671
D:	968.45	-2047	879	16020	-624	-49	-176	-3483	-1758	5666
D:	969.29	-2047	879	16020	-624	-49	-176	-3483	-1758	5666
D:	970.37	-2047	879	16020	-624	57	-234	-3483	-1758	5666
D:	971.23	-2076	977	16241	-646	57	-234	-3483	-1758	5666
D:	972.40	-2076	977	16241	-646	57	-234	-3483	-1758	5666
D:	973.29	-2076	977	16241	-646	57	-234	-3483	-1758	5666
D:	974.14	-2076	977	16241	-646	-2	-177	-3483	-1758	5666
D:	974.98	-2076	977	16072	-738	-2	-177	-3483	-1758	5666
D:	975.87	-1958	867	16072	-738	-2	-177	-3483	-1758	5666
D:	976.72	-1958	867	16072	-738	-2	-177	-3483	-1758	5666
D:	977.74	-1958	867	16072	-738	-2	-177	-3483	-1758	5666
D:	978.74	-1958	867	16072	-560	70	-141	-3483	-1758	5666
D:	979.67	-2126	766	15840	-560	70	-141	-3483	-1758	5666
D:	980.54	-2126	766	15840	-560	70	-141	-3483	-1758	5666
D:	981.41	-2126	766	15840	-560	70	-141	-3483	-1758	5666
D:	982.26	-2126	766	15840	-560	-29	-106	-3483	-1758	5666
D:	983.13	-2041	649	15970	-632	-29	-106	-3483	-1758	5666
D:	983.97	-2041	649	15970	-632	-29	-106	-3483	-1758	5666
D:	984.81	-2041	649	15970	-632	-29	-106	-3483	-1758	5666
D:	985.79	-2041	649	15970	-632	-29	-106	-3483	-1758	5666
D:	986.94	-2041	649	16045	-614	103	-216	-3483	-1758	5666
D:	987.83	-1965	590	16045	-614	103	-216	-3483	-1758	5666
D:	988.68	-1965	590	16045	-614	103	-216	-3470	-1713	5686
D:	989.72	-1965	590	16045	-614	103	-216	-3470	-1713	5686
D:	990.68	-1965	590	16045	-481	15	-280	-3470	-1713	5686
D:	991.68	-2138	532	16163	-481	15	-280	-3470	-1713	5686
D:	992.60	-2138	532	16163	-481	15	-280	-3470	-1713	5686
D:	993.61	-2138	532	16163	-481	15	-280	-3470	-1713	5686
D:	994.75	-2138	532	16163	-270	-20	-260	-3470	-1713	5686
D:	995.88	-1945	331	16030	-270	-20	-260	-3470	-1713	5686
D:	996.89	-1945	331	16030	-270	-20	-260	-3470	-1713	5686
D:	997.87	-1945	331	16030	-270	-20	-260	-3470	-1713	5686
D:	998.83	-1945	331	15832	-237	0	-306	-3470	-1713	5686
D:	999.91	-2022	354	15832	-237	0	-306	-3470	-1713	5686
D:	1001.07	-2022	354	15832	-237	0	-306	-3470	-1713	5686
D:	1002.01	-2022	354	15832	-237	-51	-314	-3470	-1713	5686
D:	1002.87	-2022	354	15832	-336	-51	-314	-3470	-1713	5686
D:	1003.75	-1859	248	16070	-336	-51	-314	-3470	-1713	5686
D:	1004.64	-1859	248	16070	-336	-51	-314	-3470	-1713	5686
D:	1005.58	-1859	248	16070	-336	-51	-314	-3470	-1713	5686
D:	1006.64	-1859	248	16070	-606	-182	-255	-3470	-1713	5686
D:	1007.53	-1759	313	15878	-606	-182	-255	-3470	-1713	5686
D:	1008.37	-1759	313	15878	-606	-182	-255	-3466	-1716	5731
D:	1009.22	-1759	313	15878	-606	-182	-255	-3466	-1716	5731
D:	1010.07	-1759	313	15878	-606	-150	-351	-3466	-1716	5731
D:	1010.99	-1759	313	16074	-819	-150	-351	-3466	-1716	5731
D:	1011.86	-1858	448	16074	-819	-150	-351	-3466	-1716	5731
D:	1012.82	-1858	448	16074	-819	-150	-351	-3466	-1716	5731
D:	1013.93	-1858	448	16074	-819	-230	-319	-3466	-1716	5731
D:	1014.96	-1844	524	15928	-913	-230	-319	-3466	-1716	5731
D:	1015.90	-1844	524	15928	-913	-230	-319	-3466	-1716	5731
D:	1016.74	-1844	524	15928	-913	-230	-319	-3466	-1716	5731
D:	1017.63	-1844	524	15928	-913	-230	-319	-3466	-1716	5731
D:	1018.53	-1844	524	15928	-925	-214	-245	-3466	-1716	5731
D:	1019.57	-1768	494	15724	-925	-214	-245	-3466	-1716	5731
D:	1020.59	-1768	494	15724	-925	-214	-245	-3466	-1716	5731
D:	1021.59	-1768	494	15724	-925	-214	-245	-3466	-1716	5731
D:	1022.43	-1768	494	15724	-820	-166	-190	-3466	-1716	5731
D:	1023.26	-1656	676	15609	-820	-166	-190	-3466	-1716	5731
D:	1024.12	-1656	676	15609	-820	-166	-190	-3466	-1716	5731
D:	1024.97	-1656	676	15609	-820	-166	-190	-3466	-1716	5731
D:	1025.82	-1656	676	15609	-820	-166	-190	-3466	-1716	5731
D:	1026.70	-1656	676	15609	-682	-119	-171	-3466	-1716	5731
D:	1027.61	-1586	920	15478	-682	-119	-171	-3466	-1716	5731
D:	1028.59	-1586	920	15478	-682	-119	-171	-3477	-1699	5694
D:	1029.61	-1586	920	15478	-682	-119	-171	-3477	-1699	5694
D:	1030.77	-1586	920	15478	-508	-80	-63	-3477	-1699	5694
D:	1031.75	-1505	927	15662	-508	-80	-63	-3477	-1699	5694
D:	1032.83	-1505	927	15662	-508	-80	-63	-3477	-1699	5694
D:	1033.95	-1505	927	15662	-508	-125	37	-3477	-1699	5694
D:	1035.22	-1557	1012	15601	-327	-125	37	-3477	-1699	5694
D:	1036.38	-1557	1012	15601	-327	-125	37	-3477	-1699	5694
D:	1037.30	-1557	1012	15601	-327	-125	37	-3477	-1699	5694
D:	1038.34	-1557	1012	15601	-71	-58	-34	-3477	-1699	5694
D:	1039.52	-1613	1080	15552	-174	-58	-34	-3477	-1699	5694
D:	1040.47	-1613	1080	15552	-174	-58	-34	-3477	-1699	5694
D:	1041.42	-1613	1080	15552	-174	-58	-34	-3477	-1699	5694
D:	1042.62	-1613	1080	15552	-222	242	26	-3477	-1699	5694
D:	1043.54	-1593	1057	15652	-222	242	26	-3477	-1699	5694
D:	1044.41	-1593	1057	15652	-222	242	26	-3477	-1699	5694
D:	1045.29	-1593	1057	15652	-222	242	26	-3477	-1699	5694
D:	1046.20	-1593	1057	15652	-222	114	88	-3477	-1699	5694
D:	1047.06	-1611	1074	15702	-263	114	88	-3477	-1699	5694
D:	1047.97	-1611	1074	15702	-263	114	88	-3477	-1699	5694
D:	1048.81	-1611	1074	15702	-263	114	88	-3477	-1699	5694
D:	1049.70	-1611	1074	15702	-263	114	88	-3477	-1699	5694
D:	1050.59	-1611	1074	15702	-539	171	205	-3477	-1699	5694
D:	1051.45	-1571	1235	15926	-539	171	205	-3477	-1699	5694
D:	1052.54	-1571	1235	15926	-539	171	205	-3468	-1729	5523
D:	1053.45	-1571	1235	15926	-539	171	205	-3468	-1729	5523
D:	1054.29	-1571	1235	15926	-539	299	217	-3468	-1729	5523
D:	1055.14	-1435	1294	16119	-678	299	217	-3468	-1729	5523
D:	1055.98	-1435	1294	16119	-678	299	217	-3468	-1729	5523
D:	1056.81	-1435	1294	16119	-678	299	217	-3468	-1729	5523
D:	1057.66	-1435	1294	16119	-678	299	217	-3468	-1729	5523
D:	1058.53	-1435	1294	16119	-759	246	196	-3468	-1729	5523
D:	1059.37	-1491	1561	16613	-759	246	196	-3468	-1729	5523
D:	1060.21	-1491	1561	16613	-759	246	196	-3468	-1729	5523
D:	1061.06	-1491	1561	16613	-759	246	196	-3468	-1729	5523
D:	1061.95	-1491	1561	16613	-759	246	196	-3468	-1729	5523
D:	1062.78	-1491	1561	16613	-706	-117	387	-3468	-1729	5523
D:	1063.63	-1346	1644	16503	-706	-117	387	-3468	-1729	5523
D:	1064.62	-1346	1644	16503	-706	-117	387	-3468	-1729	5523
D:	1065.63	-1346	1644	16503	-706	-117	387	-3468	-1729	5523
D:	1066.53	-1346	1644	16503	-746	-63	413	-3468	-1729	5523
D:	1067.37	-1477	1688	16428	-746	-63	413	-3468	-1729	5523
D:	1068.21	-1477	1688	16428	-746	-63	413	-3468	-1729	5523
D:	1069.06	-1477	1688	16428	-746	-63	413	-3468	-1729	5523
D:	1070.08	-1477	1688	16428	-746	-125	366	-3468	-1729	5523
D:	1071.02	-1568	1564	16536	-669	-125	366	-3468	-1729	5523
D:	1071.96	-1568	1564	16536	-669	-125	366	-3473	-1698	5494
D:	1072.83	-1568	1564	16536	-669	-125	366	-3473	-1698	5494
D:	1073.66	-1568	1564	16536	-669	-125	366	-3473	-1698	5494
D:	1074.74	-1568	1564	16536	-688	-166	291	-3473	-1698	5494
D:	1075.76	-1613	1264	16341	-688	-166	291	-3473	-1698	5494
D:	1076.63	-1613	1264	16341	-688	-166	291	-3473	-1698	5494
D:	1077.56	-1613	1264	16341	-688	-166	291	-3473	-1698	5494
D:	1078.46	-1613	1264	16341	-395	-176	267	-3473	-1698	5494
D:	1079.42	-1712	1072	16510	-395	-176	267	-3473	-1698	5494
D:	1080.28	-1712	1072	16510	-395	-176	267	-3473	-1698	5494
D:	1081.11	-1712	1072	16510	-395	-176	267	-3473	-1698	5494
D:	1081.97	-1712	1072	16510	-395	-176	267	-3473	-1698	5494
D:	1082.81	-1712	1072	16510	-151	-257	217	-3473	-1698	5494
D:	1083.66	-1662	779	16320	-151	-257	217	-3473	-1698	5494
D:	1084.53	-1662	779	16320	-151	-257	217	-3473	-1698	5494
D:	1085.37	-1662	779	16320	-151	-257	217	-3473	-1698	5494
D:	1086.22	-1662	779	16320	-151	-349	289	-3473	-1698	5494
D:	1087.07	-1769	780	16279	-13	-349	289	-3473	-1698	5494
D:	1087.97	-1769	780	16279	-13	-349	289	-3473	-1698	5494
D:	1088.81	-1769	780	16279	-13	-349	289	-3473	-1698	5494
D:	1089.66	-1769	780	16279	-13	-349	289	-3473	-1698	5494
D:	1090.66	-1769	780	16279	-211	-321	312	-3473	-1698	5494
D:	1091.53	-1749	470	16479	-211	-321	312	-3473	-1698	5494
D:	1092.41	-1749	470	16479	-211	-321	312	-3470	-1686	5585
D:	1093.29	-1749	470	16479	-211	-321	312	-3470	-1686	5585
D:	1094.14	-1749	470	16479	-211	-334	398	-3470	-1686	5585
D:	1094.98	-1664	154	16306	-389	-334	398	-3470	-1686	5585
D:	1095.96	-1664	154	16306	-389	-334	398	-3470	-1686	5585
D:	1096.81	-1664	154	16306	-389	-334	398	-3470	-1686	5585
D:	1097.66	-1664	154	16306	-389	-334	398	-3470	-1686	5585
D:	1098.53	-1664	154	16306	-361	-357	366	-3470	-1686	5585
D:	1099.39	-1896	75	16632	-361	-357	366	-3470	-1686	5585
D:	1100.24	-1896	75	16632	-361	-357	366	-3470	-1686	5585
D:	1101.09	-1896	75	16632	-361	-357	366	-3470	-1686	5585
D:	1101.97	-1896	75	16632	-361	-357	366	-3470	-1686	5585
D:	1102.81	-1896	75	16632	-302	-452	246	-3470	-1686	5585
D:	1103.63	-1764	93	16523	-302	-452	246	-3470	-1686	5585
D:	1104.79	-1764	93	16523	-302	-452	246	-3470	-1686	5585
D:	1105.86	-1764	93	16523	-302	-452	246	-3470	-1686	5585
D:	1106.85	-1764	93	16523	-324	-442	281	-3470	-1686	5585
D:	1107.81	-1757	207	16451	-324	-442	281	-3470	-1686	5585
D:	1108.92	-1757	207	16451	-324	-442	281	-3470	-1686	5585
D:	1109.85	-1757	207	16451	-324	-442	281	-3470	-1686	5585
D:	1110.71	-1757	207	16451	-154	-524	356	-3470	-1686	5585
D:	1111.76	-1713	274	16441	-154	-524	356	-3470	-1686	5585
D:	1112.83	-1713	274	16441	-154	-524	356	-3474	-1653	5650
D:	1113.71	-1713	274	16441	-154	-524	356	-3474	-1653	5650
D:	1114.74	-1713	274	16441	-363	-408	372	-3474	-1653	5650
D:	1115.69	-1606	364	15993	-363	-408	372	-3474	-1653	5650
D:	1116.59	-1606	364	15993	-363	-408	372	-3474	-1653	5650
D:	1117.43	-1606	364	15993	-363	-408	372	-3474	-1653	5650
D:	1118.26	-1606	364	15993	-363	-303	388	-3474	-1653	5650
D:	1119.14	-1591	527	16016	-670	-303	388	-3474	-1653	5650
D:	1120.00	-1591	527	16016	-670	-303	388	-3474	-1653	5650
D:	1120.87	-1591	527	16016	-670	-303	388	-3474	-1653	5650
D:	1121.71	-1591	527	16016	-670	-303	388	-3474	-1653	5650
D:	1122.70	-1591	527	16016	-680	-247	355	-3474	-1653	5650
D:	1123.58	-1473	632	15666	-680	-247	355	-3474	-1653	5650
D:	1124.42	-1473	632	15666	-680	-247	355	-3474	-1653	5650
D:	1125.26	-1473	632	15666	-680	-247	355	-3474	-1653	5650
D:	1126.16	-1473	632	15666	-680	-136	317	-3474	-1653	5650
D:	1127.12	-1335	780	15579	-536	-136	317	-3474	-1653	5650
D:	1127.99	-1335	780	15579	-536	-136	317	-3474	-1653	5650
D:	1129.06	-1335	780	15579	-536	-136	317	-3474	-1653	5650
D:	1130.15	-1335	780	15579	-536	-172	233	-3474	-1653	5650
D:	1131.10	-1184	1001	15823	-277	-172	233	-3474	-1653	5650
D:	1131.97	-1184	1001	15823	-277	-172	233	-3481	-1658	5592
D:	1132.97	-1184	1001	15823	-277	-172	233	-3481	-1658	5592
D:	1134.01	-1184	1001	15823	-277	-172	233	-3481	-1658	5592
D:	1134.86	-1184	1001	15823	-94	-173	163	-3481	-1658	5592
D:	1135.74	-1024	974	15349	-94	-173	163	-3481	-1658	5592
D:	1136.67	-1024	974	15349	-94	-173	163	-3481	-1658	5592
D:	1137.53	-1024	974	15349	-94	-173	163	-3481	-1658	5592
D:	1138.37	-1024	974	15349	-94	-58	203	-3481	-1658	5592
D:	1139.21	-1073	984	15423	-191	-58	203	-3481	-1658	5592
D:	1140.08	-1073	984	15423	-191	-58	203	-3481	-1658	5592
D:	1140.99	-1073	984	15423	-191	-58	203	-3481	-1658	5592
D:	1141.86	-1073	984	15423	-191	-58	203	-3481	-1658	5592
D:	1142.71	-1073	984	15423	-553	12	338	-3481	-1658	5592
D:	1143.62	-1069	936	15624	-553	12	338	-3481	-1658	5592
D:	1144.53	-1069	936	15624	-553	12	338	-3481	-1658	5592
D:	1145.37	-1069	936	15624	-553	12	338	-3481	-1658	5592
D:	1146.21	-1069	936	15624	-553	-127	367	-3481	-1658	5592
D:	1147.06	-1207	989	15574	-955	-127	367	-3481	-1658	5592
D:	1147.95	-1207	989	15574	-955	-127	367	-3481	-1658	5592
D:	1148.78	-1207	989	15574	-955	-127	367	-3481	-1658	5592
D:	1149.66	-1207	989	15574	-955	-127	367	-3481	-1658	5592
D:	1150.59	-1207	989	15574	-1041	-31	551	-3481	-1658	5592
D:	1151.56	-1120	1064	15954	-1041	-31	551	-3481	-1658	5592
D:	1152.57	-1120	1064	15954	-1041	-31	551	-3479	-1637	5656
D:	1153.44	-1120	1064	15954	-1041	-31	551	-3479	-1637	5656
D:	1154.29	-1120	1064	15954	-1041	-4	685	-3479	-1637	5656
D:	1155.17	-1134	960	15918	-966	-4	685	-3479	-1637	5656
D:	1156.12	-1134	960	15918	-966	-4	685	-3479	-1637	5656
D:	1157.00	-1134	960	15918	-966	-4	685	-3479	-1637	5656
D:	1157.86	-1134	960	15918	-966	-4	685	-3479	-1637	5656
D:	1158.72	-1134	960	15918	-726	-30	661	-3479	-1637	5656
D:	1159.67	-1059	864	15481	-726	-30	661	-3479	-1637	5656
D:	1160.54	-1059	864	15481	-726	-30	661	-3479	-1637	5656
D:	1161.49	-1059	864	15481	-726	-30	661	-3479	-1637	5656
D:	1162.66	-1059	864	15481	-578	-80	714	-3479	-1637	5656
D:	1163.73	-1199	802	15867	-578	-80	714	-3479	-1637	5656
D:	1164.68	-1199	802	15867	-578	-80	714	-3479	-1637	5656
D:	1165.66	-1199	802	15867	-578	-80	714	-3479	-1637	5656
D:	1166.78	-1199	802	15867	-469	-217	725	-3479	-1637	5656
D:	1167.66	-1225	654	15351	-469	-217	725	-3479	-1637	5656
D:	1168.53	-1225	654	15351	-469	-217	725	-3479	-1637	5656
D:	1169.37	-1225	654	15351	-469	-217	725	-3479	-1637	5656
D:	1170.45	-1225	654	15351	-349	-77	723	-3479	-1637	5656
D:	1171.62	-1422	721	15564	-349	-77	723	-3479	-1637	5656
D:	1172.64	-1422	721	15564	-349	-77	723	-3464	-1600	5684
D:	1173.66	-1422	721	15564	-349	-77	723	-3464	-1600	5684
D:	1174.58	-1422	721	15564	-313	-43	719	-3464	-1600	5684
D:	1175.44	-1351	755	15750	-313	-43	719	-3464	-1600	5684
D:	1176.29	-1351	755	15750	-313	-43	719	-3464	-1600	5684
D:	1177.17	-1351	755	15750	-313	-43	719	-3464	-1600	5684
D:	1178.15	-1351	755	15750	-313	-49	687	-3464	-1600	5684
D:	1179.07	-1323	762	15400	-273	-49	687	-3464	-1600	5684
D:	1179.95	-1323	762	15400	-273	-49	687	-3464	-1600	5684
D:	1180.81	-1323	762	15400	-273	-49	687	-3464	-1600	5684
D:	1181.67	-1323	762	15400	-273	-49	687	-3464	-1600	5684
D:	1182.53	-1323	762	15400	-208	-55	809	-3464	-1600	5684
D:	1183.39	-1449	946	15803	-208	-55	809	-3464	-1600	5684
D:	1184.26	-1449	946	15803	-208	-55	809	-3464	-1600	5684
D:	1185.13	-1449	946	15803	-208	-55	809	-3464	-1600	5684
D:	1185.99	-1449	946	15803	-208	-55	809	-3464	-1600	5684
D:	1186.86	-1449	946	15803	-349	7	791	-3464	-1600	5684
D:	1187.73	-1477	900	15594	-349	7	791	-3464	-1600	5684
D:	1188.63	-1477	900	15594	-349	7	791	-3464	-1600	5684
D:	1189.60	-1477	900	15594	-349	7	791	-3464	-1600	5684
D:	1190.87	-1477	900	15594	-196	67	818	-3464	-1600	5684
D:	1191.75	-1580	947	15792	-196	67	818	-3464	-1600	5684
D:	1192.78	-1580	947	15792	-196	67	818	-3464	-1561	5733
D:	1193.69	-1580	947	15792	-196	67	818	-3464	-1561	5733
D:	1194.54	-1580	947	15792	-510	29	817	-3464	-1561	5733
D:	1195.38	-1591	690	15576	-510	29	817	-3464	-1561	5733
D:	1196.24	-1591	690	15576	-510	29	817	-3447	-1561	5733
D:	1197.11	-1591	690	15576	-510	29	817	-3447	-1561	5733
D:	1197.99	-1591	690	15576	-510	29	817	-3447	-1561	5733
D:	1198.85	-1591	690	15576	-1012	109	738	-3447	-1561	5733
D:	1199.73	-1624	562	15518	-1012	109	738	-3447	-1561	5733
D:	1200.63	-1624	562	15518	-1012	109	738	-3447	-1561	5733
D:	1201.53	-1624	562	15518	-1012	109	738	-3447	-1561	5733
D:	1202.37	-1624	562	15518	-1780	154	738	-3447	-1561	5733
D:	1203.23	-1717	582	15858	-1644	154	738	-3447	-1561	5733
D:	1204.11	-1717	582	15858	-1644	154	738	-3447	-1561	5733
D:	1204.99	-1717	582	15858	-1644	154	738	-3447	-1561	5733
D:	1205.86	-1717	582	15858	-1644	154	738	-3447	-1561	5733
D:	1206.71	-1717	582	15858	-2258	215	715	-3447	-1561	5733
D:	1207.58	-1705	706	15610	-2258	215	715	-3447	-1561	5733
D:	1208.42	-1705	706	15610	-2258	215	715	-3447	-1561	5733
D:	1209.31	-1705	706	15610	-2258	215	715	-3447	-1561	5733
D:	1210.19	-1705	706	15610	-2258	139	892	-3447	-1561	5733
D:	1211.06	-1817	662	15925	-3007	139	892	-3447	-1561	5733
D:	1212.08	-1817	662	15925	-3007	139	892	-3447	-1561	5733
D:	1213.25	-1817	662	15925	-3007	139	892	-3447	-1561	5733
D:	1214.44	-1817	662	15925	-3527	87	898	-3447	-1561	5733
D:	1215.56	-2026	706	16046	-3527	87	898	-3447	-1561	5733
D:	1216.53	-2026	706	16046	-3527	87	898	-3448	-1535	5627
D:	1217.40	-2026	706	16046	-3527	87	898	-3448	-1535	5627
D:	1218.26	-2026	706	16046	-3527	201	916	-3448	-1535	5627
D:	1219.13	-1833	782	15716	-3536	201	916	-3448	-1535	5627
D:	1219.99	-1833	782	15716	-3536	201	916	-3448	-1535	5627
D:	1220.85	-1833	782	15716	-3536	201	916	-3448	-1535	5627
D:	1221.74	-1833	782	15716	-3536	201	916	-3448	-1535	5627
D:	1222.74	-1833	782	15716	-3461	33	875	-3448	-1535	5627
D:	1223.78	-2124	807	16047	-3461	33	875	-3448	-1535	5627
D:	1224.69	-2124	807	16047	-3461	33	875	-3448	-1535	5627
D:	1225.54	-2124	807	16047	-3461	33	875	-3448	-1535	5627
D:	1226.41	-2124	807	16047	-3205	137	889	-3448	-1535	5627
D:	1227.29	-1879	674	15501	-3188	137	889	-3448	-1535	5627
D:	1228.21	-1879	674	15501	-3188	137	889	-3448	-1535	5627
D:	1229.25	-1879	674	15501	-3188	137	889	-3448	-1535	5627
D:	1230.10	-1879	674	15501	-3188	85	830	-3448	-1535	5627
D:	1230.99	-1879	674	15363	-2997	85	830	-3448	-1535	5627
D:	1231.86	-1942	557	15363	-2997	85	830	-3448	-1535	5627
D:	1232.97	-1942	557	15363	-2997	85	830	-3448	-1535	5627
D:	1233.90	-1942	557	15363	-2997	85	830	-3448	-1535	5627
D:	1234.76	-1942	557	15363	-2939	20	969	-3448	-1535	5627
D:	1235.67	-2006	511	15237	-2939	20	969	-3448	-1535	5627
D:	1236.58	-2006	511	15237	-2939	20	969	-3438	-1421	5629
D:	1237.45	-2006	511	15237	-2939	20	969	-3438	-1421	5629
D:	1238.31	-2006	511	15237	-2939	47	921	-3438	-1421	5629
D:	1239.35	-1782	534	15246	-2988	47	921	-3438	-1421	5629
D:	1240.18	-1782	534	15246	-2988	47	921	-3438	-1421	5629
D:	1241.06	-1782	534	15246	-2988	47	921	-3438	-1421	5629
D:	1241.92	-1782	534	15246	-2988	47	921	-3438	-1421	5629
D:	1242.76	-1782	534	15246	-2725	236	780	-3438	-1421	5629
D:	1243.63	-1986	576	15354	-2725	236	780	-3438	-1421	5629
D:	1244.53	-1986	576	15354	-2725	236	780	-3438	-1421	5629
D:	1245.36	-1986	576	15354	-2725	236	780	-3438	-1421	5629
D:	1246.39	-1986	576	15354	-2469	352	785	-3438	-1421	5629
D:	1247.34	-1841	504	15096	-2318	352	785	-3438	-1421	5629
D:	1248.23	-1841	504	15096	-2318	352	785	-3438	-1421	5629
D:	1249.06	-1841	504	15096	-2318	352	785	-3438	-1421	5629
D:	1250.02	-1841	504	15096	-2318	434	804	-3438	-1421	5629
D:	1251.33	-2093	510	15102	-1809	434	804	-3438	-1421	5629
D:	1252.54	-2093	510	15102	-1809	434	804	-3438	-1421	5629
D:	1253.82	-2093	510	15102	-1809	434	804	-3438	-1421	5629
D:	1254.85	-2093	510	15102	-1311	570	691	-3438	-1421	5629
D:	1255.77	-2003	680	15110	-1311	570	691	-3438	-1421	5629
D:	1256.65	-2003	680	15110	-1311	570	691	-3409	-1396	5639
D:	1257.53	-2003	680	15110	-1311	570	691	-3409	-1396	5639
D:	1258.40	-2003	680	15110	-1311	670	658	-3409	-1396	5639
D:	1259.26	-1888	574	14996	-1465	670	658	-3409	-1396	5639
D:	1260.14	-1888	574	14996	-1465	670	658	-3409	-1396	5639
D:	1260.99	-1888	574	14996	-1465	670	658	-3409	-1396	5639
D:	1261.87	-1888	574	14996	-1465	670	658	-3409	-1396	5639
D:	1262.95	-2113	818	15380	-1473	793	702	-3409	-1396	5639
D:	1263.93	-2113	818	15380	-1473	793	702	-3409	-1396	5639
D:	1264.81	-2113	818	15380	-1473	793	702	-3409	-1396	5639
D:	1265.68	-2113	818	15380	-1473	793	702	-3409	-1396	5639
D:	1266.53	-2113	818	15380	-1447	809	659	-3409	-1396	5639
D:	1267.39	-2103	638	15498	-1447	809	659	-3409	-1396	5639
D:	1268.28	-2103	638	15498	-1447	809	659	-3409	-1396	5639
D:	1269.11	-2103	638	15498	-1447	809	659	-3409	-1396	5639
D:	1270.07	-2103	638	15498	-1447	813	607	-3409	-1396	5639
D:	1271.07	-2147	705	15666	-1319	813	607	-3409	-1396	5639
D:	1272.12	-2147	705	15666	-1319	813	607	-3409	-1396	5639
D:	1273.11	-2147	705	15666	-1319	813	607	-3409	-1396	5639
D:	1274.42	-2147	705	15666	-1132	781	837	-3409	-1396	5639
D:	1275.33	-2205	739	15893	-1132	781	837	-3409	-1396	5639
D:	1276.26	-2205	739	15893	-1132	781	837	-3378	-1339	5792
D:	1277.29	-2205	739	15893	-1132	781	837	-3378	-1339	5792
D:	1278.57	-2205	739	15893	-933	686	926	-3378	-1339	5792
D:	1279.47	-2220	828	15710	-933	686	926	-3378	-1339	5792
D:	1280.36	-2220	828	15710	-933	686	926	-3378	-1339	5792
D:	1281.24	-2220	828	15710	-933	686	926	-3378	-1339	5792
D:	1282.11	-2220	828	15710	-933	696	859	-3378	-1339	5792
D:	1282.99	-2283	870	15911	-782	696	859	-3378	-1339	5792
D:	1283.87	-2283	870	15911	-782	696	859	-3378	-1339	5792
D:	1284.69	-2283	870	15911	-782	696	859	-3378	-1339	5792
D:	1285.53	-2283	870	15911	-782	696	859	-3378	-1339	5792
D:	1286.40	-2283	870	15911	-526	709	892	-3378	-1339	5792
D:	1287.26	-2269	674	16164	-636	709	892	-3378	-1339	5792
D:	1288.14	-2269	674	16164	-636	709	892	-3378	-1339	5792
D:	1288.99	-2269	674	16164	-636	709	892	-3378	-1339	5792
D:	1289.83	-2269	674	16164	-636	709	892	-3378	-1339	5792
D:	1290.87	-2295	373	15950	-798	691	801	-3378	-1339	5792
D:	1291.91	-2295	373	15950	-798	691	801	-3378	-1339	5792
D:	1292.96	-2295	373	15950	-798	691	801	-3378	-1339	5792
D:	1293.95	-2295	373	15950	-798	691	801	-3378	-1339	5792
D:	1294.86	-2295	373	15950	-977	677	875	-3378	-1339	5792
D:	1295.78	-2550	282	16206	-977	677	875	-3378	-1339	5792
D:	1296.74	-2550	282	16206	-977	677	875	-3369	-1349	5717
D:	1297.68	-2550	282	16206	-977	677	875	-3369	-1349	5717
D:	1298.54	-2550	282	16206	-919	597	873	-3369	-1349	5717
D:	1299.61	-2231	79	16136	-919	597	873	-3369	-1349	5717
D:	1300.76	-2231	79	16136	-919	597	873	-3369	-1349	5717
D:	1301.67	-2231	79	16136	-919	597	873	-3369	-1349	5717
D:	1302.54	-2231	79	16136	-714	550	547	-3369	-1349	5717
D:	1303.39	-2431	15	15958	-714	550	547	-3369	-1349	5717
D:	1304.26	-2431	15	15958	-714	550	547	-3369	-1349	5717
D:	1305.13	-2431	15	15958	-714	550	547	-3369	-1349	5717
D:	1306.00	-2431	15	15958	-714	591	768	-3369	-1349	5717
D:	1307.01	-2385	-133	15851	-540	591	768	-3369	-1349	5717
D:	1308.01	-2385	-133	15851	-540	591	768	-3369	-1349	5717
D:	1308.83	-2385	-133	15851	-540	591	768	-3369	-1349	5717
D:	1309.81	-2385	-133	15851	-540	591	768	-3369	-1349	5717
D:	1310.98	-2318	-293	15853	-466	583	623	-3369	-1349	5717
D:	1311.90	-2318	-293	15853	-466	583	623	-3369	-1349	5717
D:	1313.07	-2318	-293	15853	-466	583	623	-3369	-1349	5717
D:	1314.13	-2318	-293	15853	-466	374	475	-3369	-1349	5717
D:	1315.10	-2237	-427	16008	-117	374	475	-3369	-1349	5717
D:	1315.99	-2237	-427	16008	-117	374	475	-3348	-1299	5693
D:	1317.08	-2237	-427	16008	-117	374	475	-3348	-1299	5693
D:	1318.23	-2237	-427	16008	-117	507	307	-3348	-1299	5693
D:	1319.17	-2163	-382	15744	572	507	307	-3348	-1299	5693
D:	1320.08	-2163	-382	15744	572	507	307	-3348	-1299	5693
D:	1320.99	-2163	-382	15744	572	507	307	-3348	-1299	5693
D:	1321.85	-2163	-382	15744	572	507	307	-3348	-1299	5693
D:	1322.71	-2163	-382	15744	839	482	260	-3348	-1299	5693
D:	1323.55	-2052	-367	15680	839	482	260	-3348	-1299	5693
D:	1324.41	-2052	-367	15680	839	482	260	-3348	-1299	5693
D:	1325.28	-2052	-367	15680	839	482	260	-3348	-1299	5693
D:	1326.16	-2052	-367	15680	839	477	244	-3348	-1299	5693
D:	1327.09	-2056	-414	15688	899	477	244	-3348	-1299	5693
D:	1327.99	-2056	-414	15688	899	477	244	-3348	-1299	5693
D:	1328.92	-2056	-414	15688	899	477	244	-3348	-1299	5693
D:	1329.90	-2056	-414	15688	899	481	323	-3348	-1299	5693
D:	1331.11	-1902	-464	15382	714	481	323	-3348	-1299	5693
D:	1332.09	-1902	-464	15382	714	481	323	-3348	-1299	5693
D:	1333.10	-1902	-464	15382	714	481	323	-3348	-1299	5693
D:	1334.23	-1902	-464	15382	714	497	232	-3348	-1299	5693
D:	1335.09	-1966	-254	15644	476	497	232	-3348	-1299	5693
D:	1335.99	-1966	-254	15644	476	497	232	-3333	-1335	5615
D:	1336.85	-1966	-254	15644	476	497	232	-3333	-1335	5615
D:	1337.68	-1966	-254	15644	476	497	232	-3333	-1335	5615
D:	1338.53	-1966	-254	15644	-37	391	331	-3333	-1335	5615
D:	1339.39	-1897	-225	15239	-37	391	331	-3333	-1335	5615
D:	1340.31	-1897	-225	15239	-37	391	331	-3333	-1335	5615
D:	1341.41	-1897	-225	15239	-37	391	331	-3333	-1335	5615
D:	1342.44	-1897	-225	15239	-398	489	299	-3333	-1335	5615
D:	1343.44	-1899	-181	15032	-398	489	299	-3333	-1335	5615
D:	1344.37	-1899	-181	15032	-398	489	299	-3333	-1335	5615
D:	1345.30	-1899	-181	15032	-398	489	299	-3333	-1335	5615
D:	1346.43	-1899	-181	15032	-642	512	340	-3333	-1335	5615
D:	1347.32	-1918	-440	15470	-642	512	340	-3333	-1335	5615
D:	1348.19	-1918	-440	15470	-642	512	340	-3333	-1335	5615
D:	1349.27	-1918	-440	15470	-642	512	340	-3333	-1335	5615
D:	1350.29	-1918	-440	15470	-642	575	318	-3333	-1335	5615
D:	1351.14	-1800	-321	14918	-658	575	318	-3333	-1335	5615
D:	1352.02	-1800	-321	14918	-658	575	318	-3333	-1335	5615
D:	1353.13	-1800	-321	14918	-658	575	318	-3333	-1335	5615
D:	1354.14	-1800	-321	14918	-658	501	264	-3333	-1335	5615
D:	1355.01	-1970	148	15067	-764	501	264	-3333	-1335	5615
D:	1355.88	-1970	148	15067	-764	501	264	-3333	-1335	5615
D:	1356.73	-1970	148	15067	-764	501	264	-3333	-1270	5705
D:	1357.67	-1970	148	15067	-764	501	264	-3333	-1270	5705
D:	1358.54	-1970	148	15067	-897	874	349	-3333	-1270	5705
D:	1359.42	-2002	307	15497	-897	874	349	-3333	-1270	5705
D:	1360.28	-2002	307	15497	-897	874	349	-3323	-1270	5705
D:	1361.13	-2002	307	15497	-897	874	349	-3323	-1270	5705
D:	1361.98	-2002	307	15497	-897	874	349	-3323	-1270	5705
D:	1362.87	-1179	491	15212	-708	762	596	-3323	-1270	5705
D:	1364.02	-1179	491	15212	-708	762	596	-3323	-1270	5705
D:	1364.91	-1179	491	15212	-708	762	596	-3323	-1270	5705
D:	1365.78	-1179	491	15212	-708	762	596	-3323	-1270	5705
D:	1366.66	-1179	491	15212	-912	709	449	-3323	-1270	5705
D:	1367.53	-1367	214	15546	-912	709	449	-3323	-1270	5705
D:	1368.39	-1367	214	15546	-912	709	449	-3323	-1270	5705
D:	1369.24	-1367	214	15546	-912	709	449	-3323	-1270	5705
D:	1370.21	-1367	214	15546	-912	868	709	-3323	-1270	5705
D:	1371.30	-1387	164	15173	-1400	868	709	-3323	-1270	5705
D:	1372.62	-1387	164	15173	-1400	868	709	-3323	-1270	5705
D:	1373.75	-1387	164	15173	-1400	868	709	-3323	-1270	5705
D:	1374.72	-1387	164	15173	-2117	735	674	-3323	-1270	5705
D:	1375.58	-1547	276	15270	-2117	735	674	-3323	-1270	5705
D:	1376.45	-1547	276	15270	-2117	735	674	-3323	-1270	5705
D:	1377.35	-1547	276	15270	-2117	735	674	-3323	-1270	5705
D:	1378.21	-1547	276	15270	-2117	842	715	-3323	-1270	5705
D:	1379.06	-1469	405	15612	-2562	842	715	-3323	-1270	5705
D:	1380.09	-1469	405	15612	-2562	842	715	-3291	-1279	5703
D:	1381.08	-1469	405	15612	-2562	842	715	-3291	-1279	5703
D:	1381.99	-1469	405	15612	-2562	842	715	-3291	-1279	5703
D:	1382.87	-1469	405	15612	-2668	1028	802	-3291	-1279	5703
D:	1383.78	-1585	210	15793	-2668	1028	802	-3291	-1279	5703
D:	1384.63	-1585	210	15793	-2668	1028	802	-3291	-1279	5703
D:	1385.47	-1585	210	15793	-2668	1028	802	-3291	-1279	5703
D:	1386.36	-1585	210	15793	-2156	932	733	-3291	-1279	5703
D:	1387.22	-1615	-81	16298	-2292	932	733	-3291	-1279	5703
D:	1388.08	-1615	-81	16298	-2292	932	733	-3291	-1279	5703
D:	1389.08	-1615	-81	16298	-2292	932	733	-3291	-1279	5703
D:	1390.09	-1615	-81	16298	-2292	824	566	-3291	-1279	5703
D:	1390.97	-1615	-81	16298	-1588	824	566	-3291	-1279	5703
D:	1392.03	-1457	-424	16591	-1588	824	566	-3291	-1279	5703
D:	1393.09	-1457	-424	16591	-1588	824	566	-3291	-1279	5703
D:	1393.97	-1457	-424	16591	-1588	824	566	-3291	-1279	5703
D:	1394.81	-1457	-424	16591	-1069	752	465	-3291	-1279	5703
D:	1395.87	-2039	-621	17163	-1069	752	465	-3291	-1279	5703
D:	1396.81	-2039	-621	17163	-1069	752	465	-3291	-1279	5703
D:	1397.67	-2039	-621	17163	-1069	752	465	-3291	-1279	5703
D:	1398.54	-2039	-621	17163	-705	580	476	-3291	-1279	5703
D:	1399.38	-1808	-959	17323	-705	580	476	-3291	-1279	5703
D:	1400.24	-1808	-959	17323	-705	580	476	-3264	-1202	5753
D:	1401.12	-1808	-959	17323	-705	580	476	-3264	-1202	5753
D:	1401.99	-1808	-959	17323	-705	580	476	-3264	-1202	5753
D:	1402.86	-1808	-959	17323	-724	528	495	-3264	-1202	5753
D:	1403.80	-1889	-1262	17298	-724	528	495	-3264	-1202	5753
D:	1404.84	-1889	-1262	17298	-724	528	495	-3264	-1202	5753
D:	1405.87	-1889	-1262	17298	-724	528	495	-3264	-1202	5753
D:	1406.74	-1889	-1262	17298	-777	379	469	-3264	-1202	5753
D:	1407.65	-2029	-1515	17047	-777	379	469	-3264	-1202	5753
D:	1408.70	-2029	-1515	17047	-777	379	469	-3264	-1202	5753
D:	1409.69	-2029	-1515	17047	-777	379	469	-3264	-1202	5753
D:	1410.53	-2029	-1515	17047	-961	306	492	-3264	-1202	5753
D:	1411.38	-1978	-1617	16718	-961	306	492	-3264	-1202	5753
D:	1412.35	-1978	-1617	16718	-961	306	492	-3264	-1202	5753
D:	1413.21	-1978	-1617	16718	-961	306	492	-3264	-1202	5753
D:	1414.09	-1978	-1617	16718	-961	247	409	-3264	-1202	5753
D:	1414.97	-1978	-1617	16718	-1155	247	409	-3264	-1202	5753
D:	1415.82	-2172	-1618	16921	-1155	247	409	-3264	-1202	5753
D:	1416.66	-2172	-1618	16921	-1155	247	409	-3264	-1202	5753
D:	1417.53	-2172	-1618	16921	-1155	247	409	-3264	-1202	5753
D:	1418.40	-2172	-1618	16921	-1411	229	468	-3264	-1202	5753
D:	1419.26	-2284	-1702	16702	-1470	229	468	-3264	-1202	5753
D:	1420.13	-2284	-1702	16702	-1470	229	468	-3248	-1213	5754
D:	1421.00	-2284	-1702	16702	-1470	229	468	-3248	-1213	5754
D:	1421.84	-2284	-1702	16702	-1470	229	468	-3248	-1213	5754
D:	1422.71	-2284	-1702	16702	-1441	283	407	-3248	-1213	5754
D:	1423.58	-2231	-1536	16951	-1441	283	407	-3248	-1213	5754
D:	1424.43	-2231	-1536	16951	-1441	283	407	-3248	-1213	5754
D:	1425.31	-2231	-1536	16951	-1441	283	407	-3248	-1213	5754
D:	1426.29	-2231	-1536	16951	-1441	285	242	-3248	-1213	5754
D:	1427.36	-2302	-1354	16605	-1217	285	242	-3248	-1213	5754
D:	1428.37	-2302	-1354	16605	-1217	285	242	-3248	-1213	5754
D:	1429.31	-2302	-1354	16605	-1217	285	242	-3248	-1213	5754
D:	1430.39	-2302	-1354	16605	-1473	342	153	-3248	-1213	5754
D:	1431.24	-2270	-1312	16504	-1416	342	153	-3248	-1213	5754
D:	1432.17	-2270	-1312	16504	-1416	342	153	-3248	-1213	5754
D:	1433.23	-2270	-1312	16504	-1416	342	153	-3248	-1213	5754
D:	1434.11	-2270	-1312	16504	-1416	407	-69	-3248	-1213	5754
D:	1434.97	-2270	-1312	16504	-1613	407	-69	-3248	-1213	5754
D:	1435.93	-2265	-1020	16655	-1613	407	-69	-3248	-1213	5754
D:	1436.86	-2265	-1020	16655	-1613	407	-69	-3248	-1213	5754
D:	1437.73	-2265	-1020	16655	-1613	407	-69	-3248	-1213	5754
D:	1438.68	-2265	-1020	16655	-2049	484	-109	-3248	-1213	5754
D:	1439.54	-2140	-806	16901	-2049	484	-109	-3248	-1213	5754
D:	1440.42	-2140	-806	16901	-2049	484	-109	-3242	-1135	5846
D:	1441.29	-2140	-806	16901	-2049	484	-109	-3242	-1135	5846
D:	1442.16	-2140	-806	16901	-2049	425	-126	-3242	-1135	5846
D:	1443.11	-2261	-606	16824	-2284	425	-126	-3242	-1135	5846
D:	1443.99	-2261	-606	16824	-2284	425	-126	-3242	-1135	5846
D:	1444.84	-2261	-606	16824	-2284	425	-126	-3242	-1135	5846
D:	1445.97	-2261	-606	16824	-2284	450	-43	-3242	-1135	5846
D:	1447.02	-2128	-497	16844	-2433	450	-43	-3242	-1135	5846
D:	1448.02	-2128	-497	16844	-2433	450	-43	-3242	-1135	5846
D:	1449.03	-2128	-497	16844	-2433	450	-43	-3242	-1135	5846
D:	1449.98	-2128	-497	16844	-2433	306	75	-3242	-1135	5846
D:	1450.89	-2128	-497	16844	-2323	306	75	-3242	-1135	5846
D:	1451.77	-1975	-405	16459	-2323	306	75	-3242	-1135	5846
D:	1452.78	-1975	-405	16459	-2323	306	75	-3242	-1135	5846
D:	1453.66	-1975	-405	16459	-2323	306	75	-3242	-1135	5846
D:	1454.53	-1975	-405	16459	-2154	348	71	-3242	-1135	5846
D:	1455.40	-1988	-225	16280	-2154	348	71	-3242	-1135	5846
D:	1456.26	-1988	-225	16280	-2154	348	71	-3242	-1135	5846
D:	1457.11	-1988	-225	16280	-2154	348	71	-3242	-1135	5846
D:	1457.99	-1988	-225	16280	-2154	348	71	-3242	-1135	5846
D:	1458.84	-1988	-225	16280	-1603	304	-153	-3242	-1135	5846
D:	1459.68	-1976	-287	16574	-1603	304	-153	-3242	-1135	5846
D:	1460.59	-1976	-287	16574	-1603	304	-153	-3233	-1138	5698
D:	1461.54	-1976	-287	16574	-1603	304	-153	-3233	-1138	5698
D:	1462.38	-1976	-287	16574	-1347	276	-208	-3233	-1138	5698
D:	1463.26	-2070	-282	16597	-1340	276	-208	-3233	-1138	5698
D:	1464.13	-2070	-282	16597	-1340	276	-208	-3233	-1138	5698
D:	1465.00	-2070	-282	16597	-1340	276	-208	-3233	-1138	5698
D:	1465.83	-2070	-282	16597	-1340	276	-208	-3233	-1138	5698
D:	1466.69	-2070	-282	16597	-785	265	-241	-3233	-1138	5698
D:	1467.71	-2130	-126	16790	-785	265	-241	-3233	-1138	5698
D:	1468.58	-2130	-126	16790	-785	265	-241	-3233	-1138	5698
D:	1469.43	-2130	-126	16790	-785	265	-241	-3233	-1138	5698
D:	1470.28	-2130	-126	16790	-785	229	-197	-3233	-1138	5698
D:	1471.26	-1916	-197	16351	-346	229	-197	-3233	-1138	5698
D:	1472.50	-1916	-197	16351	-346	229	-197	-3233	-1138	5698
D:	1473.54	-1916	-197	16351	-346	229	-197	-3233	-1138	5698
D:	1474.39	-1916	-197	16351	166	328	-234	-3233	-1138	5698
D:	1475.26	-2016	-64	16173	42	328	-234	-3233	-1138	5698
D:	1476.13	-2016	-64	16173	42	328	-234	-3233	-1138	5698
D:	1476.96	-2016	-64	16173	42	328	-234	-3233	-1138	5698
D:	1477.91	-2016	-64	16173	42	340	-236	-3233	-1138	5698
D:	1479.00	-1988	-202	16096	167	340	-236	-3233	-1138	5698
D:	1480.20	-1988	-202	16096	167	340	-236	-3225	-1097	5907
D:	1481.25	-1988	-202	16096	167	340	-236	-3225	-1097	5907
D:	1482.17	-1988	-202	16096	167	412	-147	-3225	-1097	5907
D:	1483.09	-1952	-265	15586	185	412	-147	-3225	-1097	5907
D:	1483.99	-1952	-265	15586	185	412	-147	-3225	-1097	5907
D:	1484.86	-1952	-265	15586	185	412	-147	-3225	-1097	5907
D:	1485.74	-1952	-265	15586	185	412	-147	-3225	-1097	5907
D:	1486.67	-1952	-265	15586	165	541	-345	-3225	-1097	5907
D:	1487.54	-2280	-467	16004	165	541	-345	-3225	-1097	5907
D:	1488.40	-2280	-467	16004	165	541	-345	-3225	-1097	5907
D:	1489.41	-2280	-467	16004	165	541	-345	-3225	-1097	5907
D:	1490.43	-2280	-467	16004	165	537	-196	-3225	-1097	5907
D:	1491.36	-2138	-370	15848	109	537	-196	-3225	-1097	5907
D:	1492.36	-2138	-370	15848	109	537	-196	-3225	-1097	5907
D:	1493.27	-2138	-370	15848	109	537	-196	-3225	-1097	5907
D:	1494.16	-2138	-370	15848	109	475	-307	-3225	-1097	5907
D:	1495.21	-2266	-456	16109	323	475	-307	-3225	-1097	5907
D:	1496.27	-2266	-456	16109	323	475	-307	-3225	-1097	5907
D:	1497.25	-2266	-456	16109	323	475	-307	-3225	-1097	5907
D:	1498.11	-2266	-456	16109	323	553	-449	-3225	-1097	5907
D:	1499.29	-2439	-705	16223	797	553	-449	-3225	-1097	5907
D:	1500.60	-2439	-705	16223	797	553	-449	-3216	-1125	5655
D:	1501.70	-2439	-705	16223	797	553	-449	-3216	-1125	5655
D:	1502.58	-2439	-705	16223	1363	458	-614	-3216	-1125	5655
D:	1503.45	-2466	-763	16096	1363	458	-614	-3216	-1125	5655
D:	1504.31	-2466	-763	16096	1363	458	-614	-3216	-1125	5655
D:	1505.18	-2466	-763	16096	1363	458	-614	-3216	-1125	5655
D:	1506.11	-2466	-763	16096	1363	429	-705	-3216	-1125	5655
D:	1506.99	-2466	-763	16021	1761	429	-705	-3216	-1125	5655
D:	1507.86	-2708	-733	16021	1761	429	-705	-3216	-1125	5655
D:	1508.69	-2708	-733	16021	1761	429	-705	-3216	-1125	5655
D:	1509.56	-2708	-733	16021	1761	429	-705	-3216	-1125	5655
D:	1510.43	-2708	-733	16021	2273	403	-663	-3216	-1125	5655
D:	1511.28	-2203	-875	15939	2235	403	-663	-3216	-1125	5655
D:	1512.25	-2203	-875	15939	2235	403	-663	-3216	-1125	5655
D:	1513.62	-2203	-875	15939	2235	403	-663	-3216	-1125	5655
D:	1514.55	-2203	-875	15939	2661	467	-815	-3216	-1125	5655
D:	1515.41	-2328	-666	15504	2661	467	-815	-3216	-1125	5655
D:	1516.28	-2328	-666	15504	2661	467	-815	-3216	-1125	5655
D:	1517.13	-2328	-666	15504	2661	467	-815	-3216	-1125	5655
D:	1518.00	-2328	-666	15504	2661	467	-815	-3216	-1125	5655
D:	1518.86	-2328	-666	15504	2701	547	-752	-3216	-1125	5655
D:	1519.73	-2136	-519	15681	2701	547	-752	-3216	-1125	5655
D:	1520.68	-2136	-519	15681	2701	547	-752	-3216	-1125	5492
D:	1521.68	-2136	-519	15681	2701	547	-752	-3216	-1125	5492
D:	1522.58	-2136	-519	15681	2890	523	-760	-3216	-1125	5492
D:	1523.44	-2034	-371	15107	2890	523	-760	-3216	-1125	5492
D:	1524.31	-2034	-371	15107	2890	523	-760	-3199	-1150	5492
D:	1525.18	-2034	-371	15107	2890	523	-760	-3199	-1150	5492
D:	1526.11	-2034	-371	15107	2890	509	-620	-3199	-1150	5492
D:	1526.99	-2034	-371	15367	2925	509	-620	-3199	-1150	5492
D:	1527.83	-2245	-148	15367	2925	509	-620	-3199	-1150	5492
D:	1528.84	-2245	-148	15367	2925	509	-620	-3199	-1150	5492
D:	1529.97	-2245	-148	15367	2925	509	-620	-3199	-1150	5492
D:	1530.82	-2245	-148	15367	2850	600	-404	-3199	-1150	5492
D:	1531.70	-2107	-72	15278	2850	600	-404	-3199	-1150	5492
D:	1532.93	-2107	-72	15278	2850	600	-404	-3199	-1150	5492
D:	1533.81	-2107	-72	15278	2850	600	-404	-3199	-1150	5492
D:	1534.69	-2107	-72	15278	2883	669	-335	-3199	-1150	5492
D:	1536.00	-2247	-133	15488	2883	669	-335	-3199	-1150	5492
D:	1536.93	-2247	-133	15488	2883	669	-335	-3199	-1150	5492
D:	1537.76	-2247	-133	15488	2883	669	-335	-3199	-1150	5492
D:	1538.72	-2247	-133	15488	2820	604	-319	-3199	-1150	5492
D:	1539.68	-2150	-243	15525	2820	604	-319	-3199	-1150	5492
D:	1540.53	-2150	-243	15525	2820	604	-319	-3199	-1150	5492
D:	1541.39	-2150	-243	15525	2820	604	-319	-3199	-1150	5492
D:	1542.26	-2150	-243	15525	2820	685	-379	-3199	-1150	5492
D:	1543.13	-2119	-251	15446	2688	685	-379	-3199	-1150	5492
D:	1543.98	-2119	-251	15446	2688	685	-379	-3199	-1208	5697
D:	1544.91	-2119	-251	15446	2688	685	-379	-3184	-1208	5697
D:	1545.93	-2119	-251	15446	2688	685	-379	-3184	-1208	5697
D:	1546.89	-2119	-251	15446	2199	722	-309	-3184	-1208	5697
D:	1547.78	-2344	-185	16088	2199	722	-309	-3184	-1208	5697
D:	1548.66	-2344	-185	16088	2199	722	-309	-3184	-1208	5697
D:	1549.53	-2344	-185	16088	2199	722	-309	-3184	-1208	5697
D:	1550.45	-2344	-185	16088	1635	629	-233	-3184	-1208	5697
D:	1551.32	-2312	4	15908	1635	629	-233	-3184	-1208	5697
D:	1552.24	-2312	4	15908	1635	629	-233	-3184	-1208	5697
D:	1553.22	-2312	4	15908	1635	629	-233	-3184	-1208	5697
D:	1554.31	-2312	4	15908	1635	661	-128	-3184	-1208	5697
D:	1555.27	-2401	442	15920	899	661	-128	-3184	-1208	5697
D:	1556.14	-2401	442	15920	899	661	-128	-3184	-1208	5697
D:	1557.12	-2401	442	15920	899	661	-128	-3184	-1208	5697
D:	1558.04	-2401	442	15920	899	598	-30	-3184	-1208	5697
D:	1559.27	-2153	554	16158	-198	598	-30	-3184	-1208	5697
D:	1560.20	-2153	554	16158	-198	598	-30	-3184	-1208	5697
D:	1561.12	-2153	554	16158	-198	598	-30	-3184	-1208	5697
D:	1562.08	-2153	554	16158	-198	523	83	-3184	-1208	5697
D:	1563.19	-2265	683	16304	-1399	523	83	-3184	-1208	5697
D:	1564.15	-2265	683	16304	-1399	523	83	-3170	-1214	5853
D:	1565.14	-2265	683	16304	-1399	523	83	-3170	-1214	5853
D:	1566.00	-2265	683	16304	-1399	523	83	-3170	-1214	5853
D:	1566.86	-2265	683	16304	-2405	547	117	-3170	-1214	5853
D:	1567.73	-2451	718	16428	-2405	547	117	-3170	-1214	5853
D:	1568.63	-2451	718	16428	-2405	547	117	-3170	-1214	5853
D:	1569.53	-2451	718	16428	-2405	547	117	-3170	-1214	5853
D:	1570.37	-2451	718	16428	-2917	455	230	-3170	-1214	5853
D:	1571.29	-2353	648	16345	-3056	455	230	-3170	-1214	5853
D:	1572.45	-2353	648	16345	-3056	455	230	-3170	-1214	5853
D:	1573.36	-2353	648	16345	-3056	455	230	-3170	-1214	5853
D:	1574.24	-2353	648	16345	-3056	218	442	-3170	-1214	5853
D:	1575.11	-2285	729	16478	-3548	218	442	-3170	-1214	5853
D:	1575.99	-2285	729	16478	-3548	218	442	-3170	-1214	5853
D:	1576.86	-2285	729	16478	-3548	218	442	-3170	-1214	5853
D:	1577.73	-2285	729	16478	-3548	218	442	-3170	-1214	5853
D:	1578.71	-2285	729	16478	-3478	58	641	-3170	-1214	5853
D:	1579.78	-2158	764	16645	-3478	58	641	-3170	-1214	5853
D:	1580.90	-2158	764	16645	-3478	58	641	-3170	-1214	5853
D:	1581.79	-2158	764	16645	-3478	58	641	-3170	-1214	5853
D:	1582.66	-2158	764	16645	-3441	-146	734	-3170	-1214	5853
D:	1583.53	-1974	749	15949	-3441	-146	734	-3170	-1214	5853
D:	1584.39	-1974	749	15949	-3441	-146	734	-3163	-1164	5625
D:	1585.26	-1974	749	15949	-3441	-146	734	-3163	-1164	5625
D:	1586.15	-1974	749	15949	-3441	-242	801	-3163	-1164	5625
D:	1587.08	-2090	677	16170	-3285	-242	801	-3163	-1164	5625
D:	1588.00	-2090	677	16170	-3285	-242	801	-3163	-1164	5625
D:	1588.83	-2090	677	16170	-3285	-242	801	-3163	-1164	5625
D:	1589.68	-2090	677	16170	-3285	-242	801	-3163	-1164	5625
D:	1590.53	-2090	677	16170	-3002	-5	840	-3163	-1164	5625
D:	1591.41	-2130	721	16099	-3002	-5	840	-3163	-1164	5625
D:	1592.58	-2130	721	16099	-3002	-5	840	-3163	-1164	5625
D:	1593.59	-2130	721	16099	-3002	-5	840	-3163	-1164	5625
D:	1594.43	-2130	721	16099	-2746	-402	879	-3163	-1164	5625
D:	1595.28	-1995	700	15782	-2635	-402	879	-3163	-1164	5625
D:	1596.11	-1995	700	15782	-2635	-402	879	-3163	-1164	5625
D:	1596.99	-1995	700	15782	-2635	-402	879	-3163	-1164	5625
D:	1597.93	-1995	700	15782	-2635	-402	879	-3163	-1164	5625
D:	1598.79	-1995	700	15782	-1860	-437	958	-3163	-1164	5625
D:	1599.63	-2008	734	15708	-1860	-437	958	-3163	-1164	5625
D:	1600.53	-2008	734	15708	-1860	-437	958	-3163	-1164	5625
D:	1601.47	-2008	734	15708	-1860	-437	958	-3163	-1164	5625
D:	1602.53	-2008	734	15708	-1331	-382	913	-3163	-1164	5625
D:	1603.39	-1896	685	15811	-1331	-382	913	-3163	-1164	5625
D:	1604.31	-1896	685	15811	-1331	-382	913	-3163	-1095	5867
D:	1605.18	-1896	685	15811	-1331	-382	913	-3163	-1095	5867
D:	1606.11	-1896	685	15811	-1331	-390	888	-3163	-1095	5867
D:	1607.00	-1896	685	15803	-647	-390	888	-3163	-1095	5867
D:	1607.86	-1958	542	15803	-647	-390	888	-3163	-1095	5867
D:	1608.74	-1958	542	15803	-647	-390	888	-3163	-1095	5867
D:	1609.80	-1958	542	15803	-647	-390	888	-3163	-1095	5867
D:	1610.79	-1958	542	15803	-159	-485	916	-3163	-1095	5867
D:	1611.72	-1968	534	15918	-159	-485	916	-3163	-1095	5867
D:	1612.76	-1968	534	15918	-159	-485	916	-3163	-1095	5867
D:	1613.76	-1968	534	15918	-159	-485	916	-3163	-1095	5867
D:	1614.72	-1968	534	15918	-98	-449	995	-3163	-1095	5867
D:	1615.67	-1936	384	15648	-98	-449	995	-3163	-1095	5867
D:	1616.53	-1936	384	15648	-98	-449	995	-3163	-1095	5867
D:	1617.39	-1936	384	15648	-98	-449	995	-3163	-1095	5867
D:	1618.26	-1936	384	15648	-98	-213	1052	-3163	-1095	5867
D:	1619.13	-2046	247	15768	-528	-213	1052	-3163	-1095	5867
D:	1620.00	-2046	247	15768	-528	-213	1052	-3163	-1095	5867
D:	1620.86	-2046	247	15768	-528	-213	1052	-3163	-1095	5867
D:	1621.73	-2046	247	15768	-528	-213	1052	-3163	-1095	5867
D:	1622.81	-2046	247	15995	-1509	-131	1158	-3163	-1095	5867
D:	1623.92	-1925	-253	15995	-1509	-131	1158	-3167	-1077	5791
D:	1625.15	-1925	-253	15995	-1509	-131	1158	-3167	-1077	5791
D:	1626.18	-1925	-253	15995	-1509	-119	1368	-3167	-1077	5791
D:	1627.09	-2538	-454	16103	-2333	-119	1368	-3167	-1077	5791
D:	1627.99	-2538	-454	16103	-2333	-119	1368	-3167	-1077	5791
D:	1629.26	-2538	-454	16103	-2333	-119	1368	-3167	-1077	5791
D:	1630.28	-2538	-454	16103	-2333	-88	1386	-3167	-1077	5791
D:	1631.14	-2439	-699	16456	-2615	-88	1386	-3167	-1077	5791
D:	1632.14	-2439	-699	16456	-2615	-88	1386	-3167	-1077	5791
D:	1633.08	-2439	-699	16456	-2615	-88	1386	-3167	-1077	5791
D:	1633.99	-2439	-699	16456	-2615	-88	1386	-3167	-1077	5791
D:	1634.86	-2439	-699	16456	-2517	-60	1402	-3167	-1077	5791
D:	1635.74	-2348	-871	16528	-2517	-60	1402	-3167	-1077	5791
D:	1636.67	-2348	-871	16528	-2517	-60	1402	-3167	-1077	5791
D:	1637.53	-2348	-871	16528	-2517	-60	1402	-3167	-1077	5791
D:	1638.40	-2348	-871	16528	-2261	-209	1388	-3167	-1077	5791
D:	1639.26	-2361	-915	16618	-2109	-209	1388	-3167	-1077	5791
D:	1640.14	-2361	-915	16618	-2109	-209	1388	-3167	-1077	5791
D:	1641.01	-2361	-915	16618	-2109	-209	1388	-3167	-1077	5791
D:	1641.87	-2361	-915	16618	-2109	-209	1388	-3167	-1077	5791
D:	1642.73	-2361	-915	16618	-1433	-207	1239	-3167	-1077	5791
D:	1643.67	-2303	-1232	16664	-1433	-207	1239	-3167	-1077	5791
D:	1644.61	-2303	-1232	16664	-1433	-207	1239	-3166	-1022	5669
D:	1645.64	-2303	-1232	16664	-1433	-207	1239	-3166	-1022	5669
D:	1646.77	-2303	-1232	16664	-866	-291	1200	-3166	-1022	5669
D:	1647.88	-2378	-1520	17134	-866	-291	1200	-3166	-1022	5669
D:	1648.76	-2378	-1520	17134	-866	-291	1200	-3166	-1022	5669
D:	1649.63	-2378	-1520	17134	-866	-291	1200	-3166	-1022	5669
D:	1650.53	-2378	-1520	17134	-567	-311	1075	-3166	-1022	5669
D:	1651.37	-2490	-2079	17097	-567	-311	1075	-3166	-1022	5669
D:	1652.48	-2490	-2079	17097	-567	-311	1075	-3166	-1022	5669
D:	1653.61	-2490	-2079	17097	-567	-311	1075	-3166	-1022	5669
D:	1654.54	-2490	-2079	17097	-251	-354	1065	-3166	-1022	5669
D:	1655.38	-2542	-2739	16726	-251	-354	1065	-3166	-1022	5669
D:	1656.24	-2542	-2739	16726	-251	-354	1065	-3166	-1022	5669
D:	1657.11	-2542	-2739	16726	-251	-354	1065	-3166	-1022	5669
D:	1657.99	-2542	-2739	16726	-251	-354	1065	-3166	-1022	5669
D:	1658.86	-2542	-2739	16726	-50	-457	958	-3166	-1022	5669
D:	1659.73	-2891	-3242	16875	-50	-457	958	-3166	-1022	5669
D:	1660.67	-2891	-3242	16875	-50	-457	958	-3166	-1022	5669
D:	1661.53	-2891	-3242	16875	-50	-457	958	-3166	-1022	5669
D:	1662.57	-2891	-3242	16875	116	-528	923	-3166	-1022	5669
D:	1663.57	-2893	-3530	16876	116	-528	923	-3166	-1022	5669
D:	1664.42	-2893	-3530	16876	116	-528	923	-3165	-1003	5726
D:	1665.28	-2893	-3530	16876	116	-528	923	-3165	-1003	5726
D:	1666.13	-2893	-3530	16876	116	-794	859	-3165	-1003	5726
D:	1667.21	-3015	-3888	16664	-8	-794	859	-3165	-1003	5726
D:	1668.18	-3015	-3888	16664	-8	-794	859	-3165	-1003	5726
D:	1669.08	-3015	-3888	16664	-8	-794	859	-3165	-1003	5726
D:	1669.97	-3015	-3888	16664	-8	-794	859	-3165	-1003	5726
D:	1670.81	-3015	-3888	16664	-250	-817	561	-3165	-1003	5726
D:	1671.80	-3201	-4347	16914	-250	-817	561	-3165	-1003	5726
D:	1672.93	-3201	-4347	16914	-250	-817	561	-3165	-1003	5726
D:	1673.92	-3201	-4347	16914	-250	-817	561	-3165	-1003	5726
D:	1674.87	-3201	-4347	16914	-370	-754	363	-3165	-1003	5726
D:	1675.74	-3146	-4794	16440	-370	-754	363	-3165	-1003	5726
D:	1676.63	-3146	-4794	16440	-370	-754	363	-3165	-1003	5726
D:	1677.53	-3146	-4794	16440	-370	-754	363	-3165	-1003	5726
D:	1678.57	-3146	-4794	16440	-587	-840	127	-3165	-1003	5726
D:	1679.47	-3488	-5363	16366	-587	-840	127	-3165	-1003	5726
D:	1680.34	-3488	-5363	16366	-587	-840	127	-3165	-1003	5726
D:	1681.21	-3488	-5363	16366	-587	-840	127	-3165	-1003	5726
D:	1682.09	-3488	-5363	16366	-587	-835	-137	-3165	-1003	5726
D:	1682.99	-3488	-5363	16548	-602	-835	-137	-3165	-1003	5726
D:	1683.85	-3378	-6002	16548	-602	-835	-137	-3165	-1003	5726
D:	1684.74	-3378	-6002	16548	-602	-835	-137	-3165	-1003	5753
D:	1685.63	-3378	-6002	16548	-602	-835	-137	-3165	-1003	5753
D:	1686.53	-3378	-6002	16548	-665	-998	-408	-3165	-1003	5753
D:	1687.40	-3375	-6844	16422	-665	-998	-408	-3165	-1003	5753
D:	1688.47	-3375	-6844	16422	-665	-998	-408	-3175	-954	5753
D:	1689.46	-3375	-6844	16422	-665	-998	-408	-3175	-954	5753
D:	1690.44	-3375	-6844	16422	-739	-1092	-550	-3175	-954	5753
D:	1691.29	-3713	-7259	16184	-739	-1092	-550	-3175	-954	5753
D:	1692.43	-3713	-7259	16184	-739	-1092	-550	-3175	-954	5753
D:	1693.47	-3713	-7259	16184	-739	-1092	-550	-3175	-954	5753
D:	1694.38	-3713	-7259	16184	-739	-1077	-870	-3175	-954	5753
D:	1695.21	-4134	-7769	15712	-713	-1077	-870	-3175	-954	5753
D:	1696.08	-4134	-7769	15712	-713	-1077	-870	-3175	-954	5753
D:	1697.04	-4134	-7769	15712	-713	-1077	-870	-3175	-954	5753
D:	1698.13	-4134	-7769	15712	-713	-1242	-984	-3175	-954	5753
D:	1699.12	-3653	-8063	15766	-567	-1242	-984	-3175	-954	5753
D:	1699.99	-3653	-8063	15766	-567	-1242	-984	-3175	-954	5753
D:	1700.87	-3653	-8063	15766	-567	-1242	-984	-3175	-954	5753
D:	1701.74	-3653	-8063	15766	-567	-1242	-984	-3175	-954	5753
D:	1702.67	-3653	-8063	15766	-3	-1226	-1298	-3175	-954	5753
D:	1703.53	-3740	-8453	15405	-3	-1226	-1298	-3175	-954	5753
D:	1704.41	-3740	-8453	15405	-3	-1226	-1298	-3175	-954	5753
D:	1705.26	-3740	-8453	15405	-3	-1226	-1298	-3175	-954	5753
D:	1706.16	-3740	-8453	15405	-3	-1193	-1574	-3175	-954	5753
D:	1707.12	-3888	-9008	15236	544	-1193	-1574	-3175	-954	5753
D:	1707.97	-3888	-9008	15236	544	-1193	-1574	-3175	-980	5699
D:	1708.81	-3888	-9008	15236	544	-1193	-1574	-3196	-980	5699
D:	1709.93	-3888	-9008	15236	544	-1193	-1574	-3196	-980	5699
D:	1710.95	-3888	-9008	15236	1138	-1135	-2002	-3196	-980	5699
D:	1711.86	-3863	-9204	14976	1138	-1135	-2002	-3196	-980	5699
D:	1712.97	-3863	-9204	14976	1138	-1135	-2002	-3196	-980	5699
D:	1714.30	-3863	-9204	14976	1138	-1111	-2702	-3196	-980	5699
D:	1715.26	-3694	-9442	14833	1524	-1111	-2702	-3196	-980	5699
D:	1716.21	-3694	-9442	14833	1524	-1111	-2702	-3196	-980	5699
D:	1717.08	-3694	-9442	14833	1524	-1111	-2702	-3196	-980	5699
D:	1717.97	-3694	-9442	14833	1524	-1111	-2702	-3196	-980	5699
D:	1718.83	-3694	-9442	14833	2028	-1046	-3090	-3196	-980	5699
D:	1719.72	-3720	-9270	15132	2028	-1046	-3090	-3196	-980	5699
D:	1720.77	-3720	-9270	15132	2028	-1046	-3090	-3196	-980	5699
D:	1721.72	-3720	-9270	15132	2028	-1046	-3090	-3196	-980	5699
D:	1722.58	-3720	-9270	15132	2344	-966	-3401	-3196	-980	5699
D:	1723.45	-3727	-8747	15619	2344	-966	-3401	-3196	-980	5699
D:	1724.31	-3727	-8747	15619	2344	-966	-3401	-3196	-980	5699
D:	1725.18	-3727	-8747	15619	2344	-966	-3401	-3196	-980	5699
D:	1726.11	-3727	-8747	15619	2344	-1096	-3712	-3196	-980	5699
D:	1726.96	-3727	-8747	15619	2547	-1096	-3712	-3196	-980	5699
D:	1727.89	-3351	-8610	15658	2547	-1096	-3712	-3247	-1035	5945
D:	1729.12	-3351	-8610	15658	2547	-1096	-3712	-3247	-1035	5945
D:	1730.19	-3351	-8610	15658	2547	-1500	-3955	-3247	-1035	5945
D:	1731.07	-3593	-8526	15860	2906	-1500	-3955	-3247	-1035	5945
D:	1732.02	-3593	-8526	15860	2906	-1500	-3955	-3247	-1035	5945
D:	1733.04	-3593	-8526	15860	2906	-1500	-3955	-3247	-1035	5945
D:	1733.91	-3593	-8526	15860	2906	-1500	-3955	-3247	-1035	5945
D:	1734.79	-3593	-8526	15860	2829	-1307	-4226	-3247	-1035	5945
D:	1735.66	-3416	-8370	15271	2829	-1307	-4226	-3247	-1035	5945
D:	1736.53	-3416	-8370	15271	2829	-1307	-4226	-3247	-1035	5945
D:	1737.39	-3416	-8370	15271	2829	-1307	-4226	-3247	-1035	5945
D:	1738.26	-3416	-8370	15271	2829	-1375	-4538	-3247	-1035	5945
D:	1739.12	-3703	-7952	15348	2684	-1375	-4538	-3247	-1035	5945
D:	1739.96	-3703	-7952	15348	2684	-1375	-4538	-3247	-1035	5945
D:	1740.85	-3703	-7952	15348	2684	-1375	-4538	-3247	-1035	5945
D:	1741.71	-3703	-7952	15348	2684	-1375	-4538	-3247	-1035	5945
D:	1742.58	-3703	-7952	15348	2560	-1387	-4804	-3247	-1035	5945
D:	1743.46	-3492	-7314	15772	2560	-1387	-4804	-3247	-1035	5945
D:	1744.33	-3492	-7314	15772	2560	-1387	-4804	-3247	-1035	5945
D:	1745.20	-3492	-7314	15772	2560	-1387	-4804	-3247	-1035	5945
D:	1746.09	-3492	-7314	15772	2560	-1393	-5234	-3247	-1035	5945
D:	1746.96	-3492	-7314	15772	2389	-1393	-5234	-3247	-1035	5945
D:	1747.83	-3565	-6524	16635	2389	-1393	-5234	-3247	-1035	5945
D:	1748.71	-3565	-6524	16635	2389	-1393	-5234	-3310	-1156	5693
D:	1749.61	-3565	-6524	16635	2389	-1393	-5234	-3310	-1156	5693
D:	1750.64	-3565	-6524	16635	2371	-1539	-5534	-3310	-1156	5693
D:	1751.72	-3529	-5534	16651	2371	-1539	-5534	-3310	-1156	5693
D:	1752.78	-3529	-5534	16651	2371	-1539	-5534	-3310	-1156	5693
D:	1753.72	-3529	-5534	16651	2371	-1539	-5534	-3310	-1156	5693
D:	1754.68	-3529	-5534	16651	2180	-1776	-5718	-3310	-1156	5693
D:	1755.54	-3136	-4567	16766	2180	-1776	-5718	-3310	-1156	5693
D:	1756.40	-3136	-4567	16766	2180	-1776	-5718	-3310	-1156	5693
D:	1757.26	-3136	-4567	16766	2180	-1776	-5718	-3310	-1156	5693
D:	1758.08	-3136	-4567	16766	2180	-2040	-5890	-3310	-1156	5693
D:	1759.08	-3102	-3733	17024	2182	-2040	-5890	-3310	-1156	5693
D:	1760.36	-3102	-3733	17024	2182	-2040	-5890	-3310	-1156	5693
D:	1761.32	-3102	-3733	17024	2182	-2040	-5890	-3310	-1156	5693
D:	1762.17	-3102	-3733	17024	2182	-2281	-6207	-3310	-1156	5693
D:	1763.07	-1851	-3081	17750	1959	-2281	-6207	-3310	-1156	5693
D:	1763.98	-1851	-3081	17750	1959	-2281	-6207	-3310	-1156	5693
D:	1764.85	-1851	-3081	17750	1959	-2281	-6207	-3310	-1156	5693
D:	1765.71	-1851	-3081	17750	1959	-2281	-6207	-3310	-1156	5693
D:	1766.55	-1851	-3081	17750	1041	-2494	-6219	-3310	-1156	5693
D:	1767.42	-3086	-2001	16087	1041	-2494	-6219	-3310	-1156	5693
D:	1768.26	-3086	-2001	16087	1041	-2494	-6219	-3403	-1256	5487
D:	1769.19	-3086	-2001	16087	1041	-2494	-6219	-3403	-1256	5487
D:	1770.20	-3086	-2001	16087	1041	-2066	-6198	-3403	-1256	5487
D:	1771.10	-2452	-638	16859	342	-2066	-6198	-3403	-1256	5487
D:	1772.16	-2452	-638	16859	342	-2066	-6198	-3403	-1256	5487
D:	1773.21	-2452	-638	16859	342	-2066	-6198	-3403	-1256	5487
D:	1774.09	-2452	-638	16859	342	-1917	-6070	-3403	-1256	5487
D:	1774.99	-2452	-638	16431	-204	-1917	-6070	-3403	-1256	5487
D:	1775.85	-2816	453	16431	-204	-1917	-6070	-3403	-1256	5487
D:	1776.71	-2816	453	16431	-204	-1917	-6070	-3403	-1256	5487
D:	1777.58	-2816	453	16431	-204	-1917	-6070	-3403	-1256	5487
D:	1778.45	-2816	453	16431	-620	-2315	-5988	-3403	-1256	5487
D:	1779.56	-2914	2465	16002	-620	-2315	-5988	-3403	-1256	5487
D:	1780.55	-2914	2465	16002	-620	-2315	-5988	-3403	-1256	5487
D:	1781.41	-2914	2465	16002	-620	-2315	-5988	-3403	-1256	5487
D:	1782.26	-2914	2465	16002	-620	-2538	-5757	-3403	-1256	5487
D:	1783.13	-2509	3287	16898	-905	-2538	-5757	-3403	-1256	5487
D:	1783.99	-2509	3287	16898	-905	-2538	-5757	-3403	-1256	5487
D:	1784.86	-2509	3287	16898	-905	-2538	-5757	-3403	-1256	5487
D:	1785.73	-2509	3287	16898	-905	-2538	-5757	-3403	-1256	5487
D:	1786.67	-2509	3287	16898	-1507	-2573	-5615	-3403	-1256	5487
D:	1787.54	-1999	4923	16471	-1507	-2573	-5615	-3403	-1256	5487
D:	1788.40	-1999	4923	16471	-1507	-2573	-5615	-3512	-1325	5644
D:	1789.26	-1999	4923	16471	-1507	-2573	-5615	-3512	-1325	5644
D:	1790.10	-1999	4923	16471	-1507	-2312	-5337	-3512	-1325	5644
D:	1791.17	-1094	6020	16414	-1448	-2312	-5337	-3512	-1325	5644
D:	1792.38	-1094	6020	16414	-1448	-2312	-5337	-3512	-1325	5644
D:	1793.72	-1094	6020	16414	-1448	-2312	-5337	-3512	-1325	5644
D:	1795.07	-572	7301	16483	-1368	-2033	-5138	-3512	-1325	5644
D:	1796.18	-572	7301	16483	-1368	-2033	-5138	-3512	-1325	5644
D:	1797.19	-572	7301	16483	-1368	-2033	-5138	-3512	-1325	5644
D:	1798.11	-572	7301	16483	-1368	-2102	-5097	-3512	-1325	5644
D:	1799.00	-572	7301	16427	-1080	-2102	-5097	-3512	-1325	5644
D:	1799.86	-982	8529	16427	-1080	-2102	-5097	-3512	-1325	5644
D:	1800.74	-982	8529	16427	-1080	-2102	-5097	-3512	-1325	5644
D:	1801.67	-982	8529	16427	-1080	-2102	-5097	-3512	-1325	5644
D:	1802.53	-982	8529	16427	-603	-1893	-4636	-3512	-1325	5644
D:	1803.38	-1230	9890	15297	-603	-1893	-4636	-3512	-1325	5644
D:	1804.21	-1230	9890	15297	-603	-1893	-4636	-3512	-1325	5644
D:	1805.08	-1230	9890	15297	-603	-1893	-4636	-3512	-1325	5644
D:	1805.99	-1230	9890	15297	-603	-1893	-4636	-3512	-1325	5644
D:	1806.86	-1230	9890	15297	-379	-1508	-4214	-3512	-1325	5644
D:	1807.73	-1576	10772	15034	-379	-1508	-4214	-3512	-1325	5644
D:	1808.67	-1576	10772	15034	-379	-1508	-4214	-3599	-1368	5380
D:	1809.56	-1576	10772	15034	-379	-1508	-4214	-3599	-1368	5380
D:	1810.59	-1576	10772	15034	-407	-1457	-3796	-3599	-1368	5380
D:	1811.72	99	11136	16100	-407	-1457	-3796	-3599	-1368	5380
D:	1812.73	99	11136	16100	-407	-1457	-3796	-3599	-1368	5380
D:	1813.91	99	11136	16100	-407	-1117	-3103	-3599	-1368	5380
D:	1815.20	-371	11858	15480	-952	-1117	-3103	-3599	-1368	5380
D:	1816.52	-371	11858	15480	-952	-1117	-3103	-3599	-1368	5380
D:	1817.89	-371	11858	15480	-952	-1117	-3103	-3599	-1368	5380
D:	1818.77	-371	11858	15480	-1357	-787	-2399	-3599	-1368	5380
D:	1819.67	530	13193	15398	-1357	-787	-2399	-3599	-1368	5380
D:	1820.64	530	13193	15398	-1357	-787	-2399	-3599	-1368	5380
D:	1821.62	530	13193	15398	-1357	-787	-2399	-3599	-1368	5380
D:	1822.53	530	13193	15398	-1811	-708	-1811	-3599	-1368	5380
D:	1823.36	398	13362	15003	-1811	-708	-1811	-3599	-1368	5380
D:	1824.21	398	13362	15003	-1811	-708	-1811	-3599	-1368	5380
D:	1825.09	398	13362	15003	-1811	-708	-1811	-3599	-1368	5380
D:	1825.99	398	13362	15003	-1811	-708	-1811	-3599	-1368	5380
D:	1826.84	398	13362	15003	-2089	-664	-1389	-3599	-1368	5380
D:	1827.72	650	13245	15672	-2089	-664	-1389	-3599	-1368	5380
D:	1828.63	650	13245	15672	-2089	-664	-1389	-3668	-1384	5482
D:	1829.53	650	13245	15672	-2089	-664	-1389	-3668	-1384	5482
D:	1830.44	650	13245	15672	-2089	-481	-964	-3668	-1384	5482
D:	1831.28	-992	14084	15048	-2280	-481	-964	-3668	-1384	5482
D:	1832.22	-992	14084	15048	-2280	-481	-964	-3668	-1384	5482
D:	1833.14	-992	14084	15048	-2280	-481	-964	-3668	-1384	5482
D:	1834.10	-992	14084	15048	-2280	-332	-743	-3668	-1384	5482
D:	1835.32	-1643	13561	13726	-2374	-332	-743	-3668	-1384	5482
D:	1836.44	-1643	13561	13726	-2374	-332	-743	-3668	-1384	5482
D:	1837.34	-1643	13561	13726	-2374	-332	-743	-3668	-1384	5482
D:	1838.21	-1643	13561	13726	-2374	1	-141	-3668	-1384	5482
D:	1839.08	-285	12554	14596	-2691	1	-141	-3668	-1384	5482
D:	1839.99	-285	12554	14596	-2691	1	-141	-3668	-1384	5482
D:	1840.86	-285	12554	14596	-2691	1	-141	-3668	-1384	5482
D:	1841.74	-285	12554	14596	-2691	1	-141	-3668	-1384	5482
D:	1842.67	-285	12554	14596	-3076	481	738	-3668	-1384	5482
D:	1843.53	271	12112	14465	-3076	481	738	-3668	-1384	5482
D:	1844.37	271	12112	14465	-3076	481	738	-3668	-1384	5482
D:	1845.21	271	12112	14465	-3076	481	738	-3668	-1384	5482
D:	1846.06	271	12112	14465	-3076	436	1255	-3668	-1384	5482
D:	1846.94	271	12112	14465	-3540	436	1255	-3668	-1384	5482
D:	1847.81	241	11658	14788	-3540	436	1255	-3668	-1384	5482
D:	1848.66	241	11658	14788	-3540	436	1255	-3668	-1384	5482
D:	1849.55	241	11658	14788	-3540	436	1255	-3668	-1384	5482
D:	1850.70	241	11658	14788	-3939	729	1991	-3668	-1384	5482
D:	1851.80	314	11684	14581	-3939	729	1991	-3671	-1344	5399
D:	1852.92	314	11684	14581	-3939	729	1991	-3671	-1344	5399
D:	1853.79	314	11684	14581	-3939	729	1991	-3671	-1344	5399
D:	1854.79	314	11684	14581	-4231	716	2148	-3671	-1344	5399
D:	1855.86	457	11198	14699	-4231	716	2148	-3671	-1344	5399
D:	1856.74	457	11198	14699	-4231	716	2148	-3671	-1344	5399
D:	1857.69	457	11198	14699	-4231	716	2148	-3671	-1344	5399
D:	1858.58	457	11198	14699	-3915	920	2766	-3671	-1344	5399
D:	1859.45	104	10600	15296	-3915	920	2766	-3671	-1344	5399
D:	1860.33	104	10600	15296	-3915	920	2766	-3671	-1344	5399
D:	1861.21	104	10600	15296	-3915	920	2766	-3671	-1344	5399
D:	1862.27	104	10600	15296	-3915	1275	3209	-3671	-1344	5399
D:	1863.21	272	10287	15069	-3625	1275	3209	-3671	-1344	5399
D:	1864.08	272	10287	15069	-3625	1275	3209	-3671	-1344	5399
D:	1864.96	272	10287	15069	-3625	1275	3209	-3671	-1344	5399
D:	1865.84	272	10287	15069	-3625	1275	3209	-3671	-1344	5399
D:	1866.71	272	10287	15069	-3245	1124	3455	-3671	-1344	5399
D:	1867.55	156	9771	15025	-3245	1124	3455	-3671	-1344	5399
D:	1868.39	156	9771	15025	-3245	1124	3455	-3671	-1344	5399
D:	1869.24	156	9771	15025	-3245	1124	3455	-3671	-1344	5399
D:	1870.19	156	9771	15025	-3245	1150	4093	-3671	-1344	5399
D:	1871.35	224	9023	14686	-3246	1150	4093	-3671	-1344	5399
D:	1872.39	224	9023	14686	-3246	1150	4093	-3635	-1231	5656
D:	1873.35	224	9023	14686	-3246	1150	4093	-3635	-1231	5656
D:	1874.22	224	9023	14686	-3246	1117	4507	-3635	-1231	5656
D:	1875.09	-212	8611	14957	-3589	1117	4507	-3635	-1231	5656
D:	1876.06	-212	8611	14957	-3589	1117	4507	-3635	-1231	5656
D:	1876.98	-212	8611	14957	-3589	1117	4507	-3635	-1231	5656
D:	1877.86	-212	8611	14957	-3589	1117	4507	-3635	-1231	5656
D:	1878.71	-212	8611	14957	-4019	1063	4934	-3635	-1231	5656
D:	1879.55	88	7900	14664	-4019	1063	4934	-3635	-1231	5656
D:	1880.43	88	7900	14664	-4019	1063	4934	-3635	-1231	5656
D:	1881.29	88	7900	14664	-4019	1063	4934	-3635	-1231	5656
D:	1882.14	88	7900	14664	-4019	1156	5324	-3635	-1231	5656
D:	1883.00	88	7900	14643	-4245	1156	5324	-3635	-1231	5656
D:	1883.86	20	7054	14643	-4245	1156	5324	-3635	-1231	5656
D:	1884.71	20	7054	14643	-4245	1156	5324	-3635	-1231	5656
D:	1885.55	20	7054	14643	-4245	1156	5324	-3635	-1231	5656
D:	1886.41	20	7054	14643	-4245	1181	5754	-3635	-1231	5656
D:	1887.28	-643	5517	14679	-4207	1181	5754	-3635	-1231	5656
D:	1888.13	-643	5517	14679	-4207	1181	5754	-3635	-1231	5656
D:	1888.98	-643	5517	14679	-4207	1181	5754	-3635	-1231	5656
D:	1889.92	-643	5517	14679	-4207	1267	6112	-3635	-1231	5656
D:	1891.03	-712	4136	14124	-4175	1267	6112	-3635	-1231	5656
D:	1892.02	-712	4136	14124	-4175	1267	6112	-3557	-1086	5571
D:	1893.12	-712	4136	14124	-4175	1267	6112	-3557	-1086	5571
D:	1894.10	-712	4136	14124	-4175	1444	6371	-3557	-1086	5571
D:	1895.00	-712	4136	13905	-4198	1444	6371	-3557	-1086	5571
D:	1895.89	-930	2551	13905	-4198	1444	6371	-3557	-1086	5571
D:	1896.81	-930	2551	13905	-4198	1444	6371	-3557	-1086	5571
D:	1897.70	-930	2551	13905	-4198	1444	6371	-3557	-1086	5571
D:	1898.58	-930	2551	13905	-4232	1642	6533	-3557	-1086	5571
D:	1899.43	-1470	1029	14325	-4232	1642	6533	-3557	-1086	5571
D:	1900.32	-1470	1029	14325	-4232	1642	6533	-3557	-1086	5571
D:	1901.18	-1470	1029	14325	-4232	1642	6533	-3557	-1086	5571
D:	1902.06	-1470	1029	14325	-4232	1882	6654	-3557	-1086	5571
D:	1902.94	-1470	1029	14325	-4336	1882	6654	-3557	-1086	5571
D:	1903.81	-1562	-634	14621	-4336	1882	6654	-3557	-1086	5571
D:	1904.66	-1562	-634	14621	-4336	1882	6654	-3557	-1086	5571
D:	1905.55	-1562	-634	14621	-4336	1882	6654	-3557	-1086	5571
D:	1906.41	-1562	-634	14621	-4336	2174	6743	-3557	-1086	5571
D:	1907.28	-1790	-1976	15370	-4269	2174	6743	-3557	-1086	5571
D:	1908.16	-1790	-1976	15370	-4269	2174	6743	-3557	-1086	5571
D:	1909.25	-1790	-1976	15370	-4269	2174	6743	-3557	-1086	5571
D:	1910.28	-1790	-1976	15370	-4269	2192	6718	-3557	-1086	5571
D:	1911.29	-1936	-3655	15462	-4022	2192	6718	-3557	-1086	5571
D:	1912.32	-1936	-3655	15462	-4022	2192	6718	-3470	-932	5785
D:	1913.42	-1936	-3655	15462	-4022	2192	6718	-3470	-932	5785
D:	1914.81	-1936	-3655	15462	-3645	2286	6590	-3470	-932	5785
D:	1915.67	-2372	-5468	15758	-3645	2286	6590	-3470	-932	5785
D:	1916.66	-2372	-5468	15758	-3645	2286	6590	-3470	-932	5785
D:	1917.70	-2372	-5468	15758	-3645	2286	6590	-3470	-932	5785
D:	1918.64	-2372	-5468	15758	-3090	2261	6402	-3470	-932	5785
D:	1919.59	-2865	-7347	16113	-3090	2261	6402	-3470	-932	5785
D:	1920.45	-2865	-7347	16113	-3090	2261	6402	-3470	-932	5785
D:	1921.36	-2865	-7347	16113	-3090	2261	6402	-3470	-932	5785
D:	1922.24	-2865	-7347	16113	-3090	2231	6040	-3470	-932	5785
D:	1923.11	-3185	-8571	16516	-2328	2231	6040	-3470	-932	5785
D:	1923.99	-3185	-8571	16516	-2328	2231	6040	-3470	-932	5785
D:	1924.85	-3185	-8571	16516	-2328	2231	6040	-3470	-932	5785
D:	1925.68	-3185	-8571	16516	-2328	2231	6040	-3470	-932	5785
D:	1926.54	-3185	-8571	16516	-1788	2156	5527	-3470	-932	5785
D:	1927.36	-3497	-9967	16773	-1788	2156	5527	-3470	-932	5785
D:	1928.21	-3497	-9967	16773	-1788	2156	5527	-3470	-932	5785
D:	1929.13	-3497	-9967	16773	-1788	2156	5527	-3470	-932	5785
D:	1930.08	-3497	-9967	16773	-1788	2023	5062	-3470	-932	5785
